arduino_ms,PPG_HR,PPG_O2,PPG_Conf,PPG_Status,MPU_AccelX,MPU_AccelY,MPU_AccelZ,MPU_GyroX,MPU_GyroY,MPU_GyroZ,MPU_Temp,MPU_VelX,MPU_VelY,MPU_VelZ,py_timestamp,real_time
169794.0,74.0,99.0,98.0,3.0,0.17,-0.04,10.32,-0.02,0.01,0.01,19.21,27.63,-7.99,1666.17,1755695338.5684967,14:08:58
169816.0,74.0,99.0,98.0,3.0,0.16,-0.02,10.3,-0.02,0.01,0.01,19.19,27.63,-7.99,1666.4,1755695338.6208894,14:08:58
169837.0,74.0,99.0,98.0,3.0,0.18,-0.07,10.32,-0.03,0.01,0.0,19.21,27.63,-7.99,1666.61,1755695338.6704175,14:08:58
169860.0,74.0,99.0,98.0,3.0,0.16,-0.05,10.3,-0.03,0.01,0.01,19.2,27.64,-7.99,1666.85,1755695338.716507,14:08:58
169881.0,74.0,99.0,98.0,3.0,0.17,-0.04,10.33,-0.03,0.01,0.0,19.21,27.64,-7.99,1667.07,1755695338.7723718,14:08:58
169903.0,74.0,99.0,98.0,3.0,0.16,-0.04,10.33,-0.02,0.01,0.01,19.19,27.64,-8.0,1667.29,1755695338.8215497,14:08:58
169924.0,74.0,99.0,98.0,3.0,0.18,-0.05,10.29,-0.02,0.01,0.0,19.21,27.65,-8.0,1667.51,1755695338.875179,14:08:58
169946.0,74.0,99.0,98.0,3.0,0.18,-0.06,10.29,-0.03,0.01,0.01,19.22,27.65,-8.0,1667.74,1755695338.927424,14:08:58
169968.0,74.0,99.0,98.0,3.0,0.18,-0.05,10.31,-0.03,0.01,0.0,19.2,27.66,-8.0,1667.96,1755695338.9784873,14:08:58
169989.0,74.0,99.0,98.0,3.0,0.14,-0.04,10.29,-0.02,0.01,0.0,19.2,27.66,-8.0,1668.18,1755695339.030209,14:08:59
170011.0,74.0,99.0,98.0,3.0,0.18,-0.03,10.3,-0.03,0.01,0.0,19.19,27.66,-8.0,1668.4,1755695339.0825524,14:08:59
170032.0,74.0,99.0,98.0,3.0,0.17,-0.05,10.3,-0.03,0.01,0.0,19.19,27.67,-8.0,1668.62,1755695339.1329188,14:08:59
170053.0,74.0,99.0,98.0,3.0,0.19,-0.04,10.31,-0.02,0.01,0.0,19.19,27.67,-8.0,1668.84,1755695339.1832633,14:08:59
170076.0,74.0,99.0,98.0,3.0,0.18,-0.03,10.29,-0.03,0.01,0.01,19.2,27.67,-8.0,1669.07,1755695339.2392714,14:08:59
170097.0,74.0,99.0,98.0,3.0,0.17,-0.03,10.32,-0.02,0.01,0.0,19.2,27.68,-8.0,1669.29,1755695339.2994356,14:08:59
170119.0,74.0,99.0,98.0,3.0,0.18,-0.06,10.3,-0.03,0.01,0.0,19.18,27.68,-8.0,1669.52,1755695339.3536763,14:08:59
170140.0,74.0,99.0,98.0,3.0,0.16,-0.06,10.31,-0.02,0.01,0.0,19.2,27.69,-8.01,1669.73,1755695339.40395,14:08:59
170161.0,74.0,99.0,98.0,3.0,0.18,-0.06,10.31,-0.02,0.01,0.01,19.2,27.69,-8.01,1669.95,1755695339.4566054,14:08:59
170183.0,74.0,99.0,98.0,3.0,0.16,-0.05,10.31,-0.02,0.01,0.0,19.2,27.69,-8.01,1670.18,1755695339.5066586,14:08:59
170204.0,74.0,99.0,98.0,3.0,0.17,-0.04,10.31,-0.03,0.01,0.01,19.22,27.7,-8.01,1670.39,1755695339.560256,14:08:59
170226.0,74.0,99.0,98.0,3.0,0.17,-0.05,10.32,-0.03,0.01,0.01,19.2,27.7,-8.01,1670.62,1755695339.6109953,14:08:59
170247.0,74.0,99.0,98.0,3.0,0.17,-0.05,10.3,-0.03,0.01,0.01,19.19,27.7,-8.01,1670.84,1755695339.6662614,14:08:59
170268.0,74.0,99.0,98.0,3.0,0.17,-0.06,10.31,-0.02,0.01,0.0,19.21,27.71,-8.01,1671.05,1755695339.7174475,14:08:59
170290.0,74.0,99.0,98.0,3.0,0.17,-0.06,10.32,-0.02,0.01,0.01,19.21,27.71,-8.01,1671.28,1755695339.7669084,14:08:59
170311.0,74.0,99.0,98.0,3.0,0.18,-0.04,10.3,-0.02,0.01,0.01,19.2,27.71,-8.02,1671.5,1755695339.8196118,14:08:59
170333.0,74.0,99.0,98.0,3.0,0.18,-0.08,10.31,-0.02,0.01,0.01,19.2,27.72,-8.02,1671.72,1755695339.8684294,14:08:59
170354.0,74.0,99.0,98.0,3.0,0.2,-0.06,10.31,-0.03,0.01,0.0,19.19,27.72,-8.02,1671.94,1755695340.015291,14:09:00
170375.0,74.0,99.0,98.0,3.0,0.16,-0.05,10.3,-0.02,0.01,0.0,19.2,27.73,-8.02,1672.16,1755695340.0646763,14:09:00
170397.0,74.0,99.0,98.0,3.0,0.18,-0.03,10.31,-0.03,0.01,0.01,19.19,27.73,-8.02,1672.38,1755695340.1174793,14:09:00
170418.0,74.0,99.0,98.0,3.0,0.19,-0.02,10.3,-0.03,0.01,0.01,19.21,27.73,-8.02,1672.6,1755695340.1673157,14:09:00
170440.0,74.0,99.0,98.0,3.0,0.17,-0.05,10.3,-0.03,0.01,0.01,19.21,27.74,-8.02,1672.83,1755695340.2163665,14:09:00
170461.0,74.0,99.0,98.0,3.0,0.19,-0.03,10.31,-0.03,0.01,0.0,19.19,27.74,-8.02,1673.04,1755695340.2793238,14:09:00
170482.0,0.0,0.0,0.0,0.0,0.17,-0.06,10.32,-0.03,0.01,0.0,19.18,27.75,-8.02,1673.26,1755695340.3332589,14:09:00
170523.0,74.0,99.0,98.0,3.0,0.18,-0.03,10.3,-0.03,0.01,0.0,19.21,27.75,-8.03,1673.68,1755695340.395035,14:09:00
170545.0,74.0,99.0,98.0,3.0,0.17,-0.05,10.31,-0.03,0.01,0.0,19.22,27.76,-8.03,1673.91,1755695340.5305073,14:09:00
170566.0,74.0,99.0,98.0,3.0,0.19,-0.04,10.33,-0.03,0.01,0.0,19.21,27.76,-8.03,1674.13,1755695340.5889325,14:09:00
170587.0,74.0,99.0,98.0,3.0,0.18,-0.06,10.31,-0.02,0.01,0.0,19.21,27.76,-8.03,1674.34,1755695340.641922,14:09:00
170609.0,74.0,99.0,98.0,3.0,0.18,-0.06,10.31,-0.03,0.01,0.0,19.22,27.77,-8.03,1674.57,1755695340.6929276,14:09:00
170631.0,74.0,99.0,98.0,3.0,0.18,-0.06,10.32,-0.03,0.01,0.0,19.21,27.77,-8.03,1674.8,1755695340.744673,14:09:00
170652.0,74.0,99.0,98.0,3.0,0.17,-0.05,10.32,-0.03,0.01,0.01,19.2,27.78,-8.03,1675.01,1755695340.7925646,14:09:00
170674.0,74.0,99.0,98.0,3.0,0.16,-0.04,10.31,-0.03,0.01,0.0,19.21,27.78,-8.03,1675.24,1755695340.8462584,14:09:00
170695.0,74.0,99.0,98.0,3.0,0.17,-0.04,10.31,-0.03,0.01,0.0,19.19,27.78,-8.03,1675.46,1755695340.8956451,14:09:00
170716.0,74.0,99.0,98.0,3.0,0.15,-0.06,10.31,-0.03,0.01,0.01,19.19,27.79,-8.03,1675.67,1755695340.947835,14:09:00
170737.0,74.0,99.0,98.0,3.0,0.17,-0.04,10.3,-0.03,0.01,0.0,19.18,27.79,-8.04,1675.89,1755695340.9948761,14:09:00
170760.0,74.0,99.0,98.0,3.0,0.16,-0.05,10.34,-0.03,0.01,0.01,19.2,27.79,-8.04,1676.13,1755695341.0450137,14:09:01
170782.0,74.0,99.0,98.0,3.0,0.16,-0.04,10.33,-0.03,0.01,0.0,19.19,27.8,-8.04,1676.35,1755695341.0928862,14:09:01
170803.0,74.0,99.0,98.0,3.0,0.15,-0.05,10.32,-0.03,0.01,0.01,19.2,27.8,-8.04,1676.57,1755695341.146072,14:09:01
170825.0,74.0,99.0,98.0,3.0,0.17,-0.07,10.29,-0.02,0.01,0.0,19.21,27.8,-8.04,1676.8,1755695341.1943548,14:09:01
170846.0,74.0,99.0,98.0,3.0,0.19,-0.06,10.3,-0.03,0.01,0.01,19.2,27.81,-8.04,1677.01,1755695341.244176,14:09:01
170868.0,74.0,99.0,98.0,3.0,0.18,-0.06,10.32,-0.03,0.01,0.01,19.2,27.81,-8.04,1677.24,1755695341.3034813,14:09:01
170889.0,74.0,99.0,98.0,3.0,0.15,-0.04,10.32,-0.03,0.01,0.01,19.19,27.82,-8.04,1677.46,1755695341.3563392,14:09:01
170910.0,74.0,99.0,98.0,3.0,0.18,-0.04,10.32,-0.02,0.01,0.0,19.2,27.82,-8.04,1677.67,1755695341.4113162,14:09:01
170932.0,73.0,99.0,98.0,3.0,0.18,-0.03,10.32,-0.03,0.01,0.0,19.21,27.82,-8.05,1677.9,1755695341.4601338,14:09:01
170953.0,73.0,99.0,98.0,3.0,0.16,-0.06,10.31,-0.03,0.01,0.0,19.2,27.83,-8.05,1678.12,1755695341.5128052,14:09:01
170975.0,73.0,99.0,98.0,3.0,0.17,-0.05,10.32,-0.02,0.01,0.0,19.2,27.83,-8.05,1678.34,1755695341.5724075,14:09:01
170997.0,73.0,99.0,98.0,3.0,0.17,-0.04,10.32,-0.02,0.01,0.01,19.2,27.83,-8.05,1678.57,1755695341.6461215,14:09:01
171018.0,73.0,99.0,98.0,3.0,0.16,-0.04,10.31,-0.03,0.01,0.01,19.23,27.84,-8.05,1678.79,1755695341.701088,14:09:01
171040.0,73.0,99.0,98.0,3.0,0.18,-0.03,10.3,-0.02,0.01,0.0,19.22,27.84,-8.05,1679.02,1755695341.7497303,14:09:01
171061.0,73.0,99.0,98.0,3.0,0.18,-0.05,10.31,-0.02,0.01,0.0,19.22,27.84,-8.05,1679.23,1755695341.79662,14:09:01
171083.0,73.0,99.0,98.0,3.0,0.17,-0.04,10.31,-0.03,0.01,0.01,19.22,27.85,-8.05,1679.46,1755695341.8515108,14:09:01
171104.0,73.0,99.0,98.0,3.0,0.16,-0.03,10.31,-0.03,0.01,0.0,19.22,27.85,-8.05,1679.67,1755695341.9010537,14:09:01
171125.0,73.0,99.0,98.0,3.0,0.16,-0.05,10.3,-0.03,0.01,0.01,19.19,27.85,-8.05,1679.89,1755695341.9621577,14:09:01
171147.0,73.0,99.0,98.0,3.0,0.18,-0.06,10.3,-0.03,0.01,0.0,19.21,27.86,-8.05,1680.12,1755695342.0150955,14:09:02
171168.0,73.0,99.0,98.0,3.0,0.18,-0.06,10.31,-0.02,0.01,0.0,19.22,27.86,-8.06,1680.33,1755695342.0629919,14:09:02
171190.0,73.0,99.0,98.0,3.0,0.17,-0.05,10.31,-0.03,0.01,0.0,19.22,27.87,-8.06,1680.56,1755695342.1138318,14:09:02
171211.0,73.0,99.0,98.0,3.0,0.17,-0.05,10.31,-0.02,0.01,0.01,19.19,27.87,-8.06,1680.78,1755695342.162179,14:09:02
171233.0,73.0,99.0,98.0,3.0,0.17,-0.06,10.3,-0.03,0.01,0.01,19.2,27.87,-8.06,1681.0,1755695342.2211406,14:09:02
171254.0,73.0,99.0,98.0,3.0,0.17,-0.05,10.31,-0.03,0.01,0.01,19.21,27.88,-8.06,1681.22,1755695342.2707515,14:09:02
171275.0,73.0,99.0,98.0,3.0,0.17,-0.03,10.31,-0.03,0.01,0.0,19.2,27.88,-8.06,1681.44,1755695342.3218727,14:09:02
171297.0,73.0,99.0,98.0,3.0,0.19,-0.05,10.32,-0.03,0.01,0.01,19.19,27.88,-8.06,1681.66,1755695342.377907,14:09:02
171318.0,73.0,99.0,98.0,3.0,0.16,-0.04,10.33,-0.03,0.01,0.0,19.2,27.89,-8.06,1681.88,1755695342.4304354,14:09:02
171340.0,73.0,99.0,98.0,3.0,0.17,-0.06,10.31,-0.03,0.01,0.0,19.2,27.89,-8.06,1682.11,1755695342.4842,14:09:02
171361.0,73.0,99.0,98.0,3.0,0.17,-0.05,10.33,-0.02,0.01,0.01,19.22,27.9,-8.07,1682.33,1755695342.5341501,14:09:02
171382.0,73.0,99.0,98.0,3.0,0.18,-0.05,10.34,-0.03,0.01,0.0,19.19,27.9,-8.07,1682.54,1755695342.586729,14:09:02
171404.0,73.0,99.0,98.0,3.0,0.17,-0.04,10.32,-0.03,0.01,0.0,19.2,27.9,-8.07,1682.77,1755695342.6401656,14:09:02
171425.0,73.0,99.0,98.0,3.0,0.19,-0.05,10.31,-0.03,0.01,0.0,19.19,27.91,-8.07,1682.99,1755695342.700696,14:09:02
171448.0,73.0,99.0,98.0,3.0,0.19,-0.05,10.31,-0.03,0.01,0.0,19.19,27.91,-8.07,1683.22,1755695342.7548265,14:09:02
171469.0,73.0,99.0,98.0,3.0,0.16,-0.06,10.3,-0.02,0.01,0.0,19.2,27.91,-8.07,1683.44,1755695342.8020673,14:09:02
171492.0,73.0,99.0,98.0,3.0,0.16,-0.04,10.27,-0.03,0.01,0.01,19.2,27.92,-8.07,1683.68,1755695342.8519783,14:09:02
171513.0,73.0,99.0,98.0,3.0,0.17,-0.05,10.3,-0.02,0.01,0.0,19.2,27.92,-8.07,1683.89,1755695342.9030542,14:09:02
171534.0,73.0,99.0,98.0,3.0,0.16,-0.04,10.3,-0.03,0.01,0.0,19.19,27.93,-8.07,1684.11,1755695342.954741,14:09:02
171556.0,73.0,99.0,98.0,3.0,0.19,-0.05,10.3,-0.03,0.01,0.0,19.19,27.93,-8.07,1684.34,1755695343.0113342,14:09:03
171577.0,73.0,99.0,98.0,3.0,0.16,-0.05,10.31,-0.03,0.01,0.01,19.19,27.93,-8.08,1684.55,1755695343.1838524,14:09:03
171598.0,73.0,99.0,98.0,3.0,0.19,-0.07,10.3,-0.02,0.01,0.01,19.19,27.94,-8.08,1684.77,1755695343.2473946,14:09:03
171620.0,73.0,99.0,98.0,3.0,0.18,-0.05,10.31,-0.02,0.01,0.01,19.21,27.94,-8.08,1684.99,1755695343.297426,14:09:03
171642.0,73.0,99.0,98.0,3.0,0.18,-0.05,10.3,-0.03,0.01,0.0,19.2,27.94,-8.08,1685.22,1755695343.3834167,14:09:03
171664.0,73.0,99.0,98.0,3.0,0.17,-0.06,10.33,-0.02,0.01,0.0,19.22,27.95,-8.08,1685.45,1755695343.4337106,14:09:03
171685.0,73.0,99.0,98.0,3.0,0.17,-0.06,10.31,-0.02,0.01,0.01,19.2,27.95,-8.08,1685.67,1755695343.488943,14:09:03
171707.0,73.0,99.0,98.0,3.0,0.18,-0.06,10.3,-0.03,0.01,0.0,19.21,27.96,-8.08,1685.89,1755695343.5892844,14:09:03
171728.0,73.0,99.0,98.0,3.0,0.17,-0.06,10.31,-0.03,0.01,0.01,19.2,27.96,-8.08,1686.11,1755695343.639542,14:09:03
171749.0,73.0,99.0,98.0,3.0,0.19,-0.05,10.31,-0.03,0.01,0.01,19.2,27.96,-8.09,1686.32,1755695343.6884599,14:09:03
171771.0,71.0,99.0,99.0,3.0,0.16,-0.06,10.33,-0.03,0.01,0.01,19.21,27.97,-8.09,1686.55,1755695343.7403545,14:09:03
171792.0,71.0,99.0,99.0,3.0,0.17,-0.07,10.3,-0.02,0.01,0.0,19.19,27.97,-8.09,1686.77,1755695343.803265,14:09:03
171814.0,71.0,99.0,99.0,3.0,0.16,-0.05,10.31,-0.03,0.01,0.0,19.2,27.97,-8.09,1687.0,1755695343.8565695,14:09:03
171835.0,71.0,99.0,99.0,3.0,0.17,-0.06,10.32,-0.02,0.01,0.0,19.2,27.98,-8.09,1687.21,1755695343.9115765,14:09:03
171856.0,71.0,99.0,99.0,3.0,0.17,-0.05,10.31,-0.03,0.01,0.01,19.21,27.98,-8.09,1687.43,1755695343.9630113,14:09:03
171878.0,71.0,99.0,99.0,3.0,0.17,-0.05,10.29,-0.02,0.01,0.0,19.22,27.99,-8.09,1687.66,1755695344.0172498,14:09:04
171899.0,71.0,99.0,99.0,3.0,0.18,-0.04,10.3,-0.03,0.01,0.01,19.19,27.99,-8.09,1687.87,1755695344.0721476,14:09:04
171921.0,71.0,99.0,99.0,3.0,0.18,-0.04,10.31,-0.02,0.01,0.01,19.19,27.99,-8.09,1688.1,1755695344.1239433,14:09:04
171942.0,71.0,99.0,99.0,3.0,0.18,-0.05,10.31,-0.02,0.01,0.01,19.19,28.0,-8.1,1688.31,1755695344.1753628,14:09:04
171963.0,71.0,99.0,99.0,3.0,0.19,-0.05,10.3,-0.03,0.01,0.01,19.2,28.0,-8.1,1688.53,1755695344.2312002,14:09:04
171985.0,71.0,99.0,99.0,3.0,0.16,-0.07,10.33,-0.03,0.01,0.01,19.21,28.0,-8.1,1688.76,1755695344.2815263,14:09:04
172006.0,71.0,99.0,99.0,3.0,0.18,-0.06,10.3,-0.03,0.01,0.01,19.19,28.01,-8.1,1688.97,1755695344.3388731,14:09:04
172028.0,71.0,99.0,99.0,3.0,0.18,-0.04,10.29,-0.03,0.01,0.0,19.2,28.01,-8.1,1689.2,1755695344.3897207,14:09:04
172049.0,71.0,99.0,99.0,3.0,0.18,-0.05,10.3,-0.03,0.01,0.0,19.19,28.02,-8.1,1689.42,1755695344.4404101,14:09:04
172070.0,71.0,99.0,99.0,3.0,0.15,-0.05,10.3,-0.03,0.01,0.0,19.19,28.02,-8.1,1689.63,1755695344.4942703,14:09:04
172092.0,71.0,99.0,99.0,3.0,0.17,-0.02,10.32,-0.03,0.01,0.01,19.19,28.02,-8.1,1689.86,1755695344.5440936,14:09:04
172113.0,71.0,99.0,99.0,3.0,0.19,-0.07,10.34,-0.03,0.01,0.01,19.2,28.03,-8.1,1690.08,1755695344.616668,14:09:04
172134.0,71.0,99.0,99.0,3.0,0.16,-0.06,10.3,-0.03,0.01,0.0,19.19,28.03,-8.11,1690.29,1755695344.6704452,14:09:04
172156.0,71.0,99.0,99.0,3.0,0.15,-0.06,10.3,-0.03,0.01,0.01,19.19,28.03,-8.11,1690.52,1755695344.7202272,14:09:04
172177.0,71.0,99.0,99.0,3.0,0.15,-0.05,10.3,-0.03,0.01,0.01,19.2,28.04,-8.11,1690.74,1755695344.7718792,14:09:04
172200.0,71.0,99.0,99.0,3.0,0.17,-0.04,10.3,-0.02,0.01,0.0,19.19,28.04,-8.11,1690.97,1755695344.9235296,14:09:04
172221.0,71.0,99.0,99.0,3.0,0.16,-0.04,10.34,-0.03,0.01,0.0,19.2,28.04,-8.11,1691.19,1755695344.9755602,14:09:04
172242.0,71.0,99.0,99.0,3.0,0.17,-0.05,10.33,-0.02,0.01,0.0,19.19,28.05,-8.11,1691.41,1755695345.03038,14:09:05
172265.0,71.0,99.0,99.0,3.0,0.18,-0.06,10.32,-0.03,0.01,0.01,19.21,28.05,-8.11,1691.64,1755695345.0804632,14:09:05
172286.0,71.0,99.0,99.0,3.0,0.16,-0.07,10.31,-0.03,0.01,0.0,19.19,28.05,-8.11,1691.86,1755695345.139477,14:09:05
172307.0,71.0,99.0,99.0,3.0,0.17,-0.06,10.29,-0.02,0.01,0.01,19.21,28.06,-8.11,1692.08,1755695345.1926196,14:09:05
172329.0,71.0,99.0,99.0,3.0,0.17,-0.05,10.32,-0.03,0.01,0.0,19.2,28.06,-8.12,1692.3,1755695345.2444959,14:09:05
172350.0,71.0,99.0,99.0,3.0,0.18,-0.05,10.31,-0.03,0.01,0.01,19.19,28.07,-8.12,1692.52,1755695345.2974472,14:09:05
172371.0,71.0,99.0,99.0,3.0,0.19,-0.05,10.3,-0.03,0.01,0.01,19.19,28.07,-8.12,1692.74,1755695345.3467236,14:09:05
172392.0,71.0,99.0,99.0,3.0,0.17,-0.05,10.32,-0.03,0.01,0.0,19.19,28.07,-8.12,1692.95,1755695345.3985512,14:09:05
172413.0,71.0,99.0,99.0,3.0,0.16,-0.06,10.33,-0.02,0.01,0.01,19.18,28.08,-8.12,1693.17,1755695345.447542,14:09:05
172434.0,71.0,99.0,99.0,3.0,0.19,-0.05,10.3,-0.03,0.01,0.0,19.2,28.08,-8.12,1693.39,1755695345.500046,14:09:05
172455.0,71.0,99.0,99.0,3.0,0.17,-0.04,10.3,-0.03,0.01,0.01,19.19,28.08,-8.12,1693.6,1755695345.5496235,14:09:05
172476.0,71.0,99.0,99.0,3.0,0.16,-0.05,10.31,-0.02,0.01,0.0,19.19,28.09,-8.12,1693.82,1755695345.6029992,14:09:05
172497.0,71.0,99.0,99.0,3.0,0.18,-0.04,10.31,-0.03,0.01,0.01,19.19,28.09,-8.12,1694.04,1755695345.654282,14:09:05
172518.0,71.0,99.0,99.0,3.0,0.17,-0.07,10.31,-0.02,0.01,0.01,19.22,28.09,-8.13,1694.25,1755695345.7118616,14:09:05
172539.0,71.0,99.0,99.0,3.0,0.17,-0.08,10.31,-0.03,0.01,0.0,19.2,28.1,-8.13,1694.47,1755695345.7598617,14:09:05
172560.0,71.0,99.0,99.0,3.0,0.15,-0.05,10.3,-0.02,0.01,0.0,19.19,28.1,-8.13,1694.69,1755695345.8117673,14:09:05
172581.0,71.0,99.0,99.0,3.0,0.17,-0.04,10.32,-0.03,0.01,0.0,19.2,28.11,-8.13,1694.9,1755695345.8619952,14:09:05
172602.0,71.0,99.0,99.0,3.0,0.15,-0.05,10.3,-0.02,0.01,0.0,19.19,28.11,-8.13,1695.12,1755695345.9130661,14:09:05
172624.0,71.0,99.0,99.0,3.0,0.17,-0.05,10.32,-0.03,0.01,0.01,19.19,28.11,-8.13,1695.35,1755695345.9706597,14:09:05
172646.0,71.0,99.0,99.0,3.0,0.16,-0.04,10.31,-0.02,0.01,0.01,19.18,28.12,-8.13,1695.57,1755695346.018012,14:09:06
172667.0,71.0,99.0,99.0,3.0,0.16,-0.04,10.33,-0.03,0.01,0.01,19.18,28.12,-8.13,1695.79,1755695346.0675783,14:09:06
172688.0,71.0,99.0,99.0,3.0,0.15,-0.06,10.32,-0.02,0.01,0.0,19.19,28.12,-8.13,1696.01,1755695346.1209385,14:09:06
172709.0,71.0,99.0,99.0,3.0,0.17,-0.06,10.31,-0.02,0.01,0.01,19.2,28.13,-8.14,1696.22,1755695346.1719356,14:09:06
172730.0,71.0,99.0,99.0,3.0,0.17,-0.04,10.3,-0.03,0.01,0.0,19.18,28.13,-8.14,1696.44,1755695346.2204497,14:09:06
172752.0,71.0,99.0,99.0,3.0,0.16,-0.06,10.31,-0.03,0.01,0.01,19.19,28.13,-8.14,1696.67,1755695346.2748446,14:09:06
172773.0,71.0,99.0,99.0,3.0,0.16,-0.05,10.29,-0.03,0.01,0.0,19.18,28.14,-8.14,1696.88,1755695346.3410447,14:09:06
172794.0,71.0,99.0,99.0,3.0,0.16,-0.04,10.3,-0.03,0.01,0.01,19.19,28.14,-8.14,1697.1,1755695346.39113,14:09:06
172816.0,71.0,99.0,99.0,3.0,0.17,-0.04,10.31,-0.03,0.01,0.0,19.2,28.14,-8.14,1697.33,1755695346.4466693,14:09:06
172837.0,71.0,99.0,99.0,3.0,0.18,-0.03,10.32,-0.03,0.01,0.01,19.19,28.15,-8.14,1697.54,1755695346.498983,14:09:06
172858.0,71.0,99.0,99.0,3.0,0.17,-0.03,10.32,-0.03,0.01,0.0,19.19,28.15,-8.14,1697.76,1755695346.5545225,14:09:06
172879.0,71.0,99.0,99.0,3.0,0.18,-0.05,10.31,-0.03,0.01,0.0,19.19,28.15,-8.14,1697.98,1755695346.606048,14:09:06
172901.0,71.0,99.0,99.0,3.0,0.15,-0.04,10.33,-0.03,0.01,0.0,19.19,28.16,-8.14,1698.2,1755695346.6575015,14:09:06
172922.0,71.0,99.0,99.0,3.0,0.16,-0.05,10.3,-0.03,0.01,0.01,19.2,28.16,-8.14,1698.42,1755695346.7055497,14:09:06
172943.0,71.0,99.0,99.0,3.0,0.16,-0.03,10.3,-0.03,0.01,0.01,19.2,28.16,-8.15,1698.64,1755695346.7711997,14:09:06
172964.0,71.0,99.0,99.0,3.0,0.17,-0.07,10.3,-0.03,0.01,0.0,19.19,28.17,-8.15,1698.85,1755695346.8200386,14:09:06
172985.0,71.0,99.0,99.0,3.0,0.18,-0.04,10.3,-0.02,0.01,0.01,19.19,28.17,-8.15,1699.07,1755695346.869902,14:09:06
173006.0,71.0,99.0,99.0,3.0,0.15,-0.05,10.3,-0.02,0.01,0.01,19.19,28.18,-8.15,1699.28,1755695346.9218328,14:09:06
173028.0,71.0,99.0,99.0,3.0,0.17,-0.04,10.31,-0.02,0.01,0.01,19.19,28.18,-8.15,1699.51,1755695346.9717033,14:09:06
173049.0,71.0,99.0,99.0,3.0,0.17,-0.06,10.29,-0.03,0.01,0.0,19.2,28.18,-8.15,1699.73,1755695347.0247126,14:09:07
173070.0,71.0,99.0,99.0,3.0,0.18,-0.04,10.3,-0.03,0.01,0.0,19.19,28.19,-8.15,1699.94,1755695347.078259,14:09:07
173091.0,71.0,99.0,99.0,3.0,0.18,-0.06,10.32,-0.03,0.01,0.0,19.2,28.19,-8.15,1700.16,1755695347.128933,14:09:07
173113.0,71.0,99.0,99.0,3.0,0.17,-0.06,10.29,-0.03,0.01,0.01,19.21,28.19,-8.15,1700.39,1755695347.1791124,14:09:07
173134.0,71.0,99.0,99.0,3.0,0.17,-0.04,10.33,-0.02,0.01,0.01,19.19,28.2,-8.16,1700.6,1755695347.2285194,14:09:07
173155.0,71.0,99.0,99.0,3.0,0.18,-0.04,10.31,-0.03,0.01,0.0,19.21,28.2,-8.16,1700.82,1755695347.2807643,14:09:07
173176.0,71.0,99.0,99.0,3.0,0.18,-0.04,10.3,-0.02,0.01,0.0,19.19,28.2,-8.16,1701.04,1755695347.3294218,14:09:07
173197.0,71.0,99.0,99.0,3.0,0.17,-0.06,10.32,-0.03,0.01,0.01,19.22,28.21,-8.16,1701.25,1755695347.3762813,14:09:07
173218.0,71.0,99.0,99.0,3.0,0.19,-0.03,10.3,-0.03,0.01,0.0,19.19,28.21,-8.16,1701.47,1755695347.429211,14:09:07
173240.0,71.0,99.0,99.0,3.0,0.16,-0.06,10.31,-0.03,0.01,0.01,19.2,28.22,-8.16,1701.7,1755695347.4840963,14:09:07
173261.0,71.0,99.0,99.0,3.0,0.18,-0.02,10.3,-0.03,0.01,0.01,19.21,28.22,-8.16,1701.91,1755695347.5355234,14:09:07
173282.0,71.0,99.0,99.0,3.0,0.19,-0.06,10.32,-0.03,0.01,0.0,19.2,28.22,-8.16,1702.13,1755695347.5864933,14:09:07
173303.0,71.0,99.0,99.0,3.0,0.18,-0.04,10.32,-0.03,0.01,0.0,19.21,28.23,-8.16,1702.35,1755695347.6339743,14:09:07
173324.0,71.0,99.0,99.0,3.0,0.17,-0.02,10.32,-0.03,0.01,0.01,19.21,28.23,-8.16,1702.56,1755695347.6902838,14:09:07
173345.0,71.0,99.0,99.0,3.0,0.17,-0.04,10.3,-0.03,0.01,0.0,19.19,28.23,-8.16,1702.78,1755695347.739598,14:09:07
173366.0,71.0,99.0,99.0,3.0,0.17,-0.05,10.36,-0.02,0.01,0.0,19.2,28.24,-8.16,1703.0,1755695347.7984073,14:09:07
173387.0,71.0,99.0,99.0,3.0,0.17,-0.03,10.32,-0.02,0.01,0.0,19.22,28.24,-8.17,1703.21,1755695347.8478436,14:09:07
173408.0,71.0,99.0,99.0,3.0,0.18,-0.05,10.31,-0.03,0.01,0.01,19.19,28.25,-8.17,1703.43,1755695347.9087732,14:09:07
173430.0,71.0,99.0,99.0,3.0,0.18,-0.04,10.3,-0.03,0.01,0.0,19.17,28.25,-8.17,1703.66,1755695348.0025053,14:09:08
173451.0,71.0,99.0,99.0,3.0,0.18,-0.06,10.3,-0.03,0.01,0.01,19.21,28.25,-8.17,1703.87,1755695348.0541713,14:09:08
173472.0,71.0,99.0,99.0,3.0,0.16,-0.05,10.31,-0.02,0.01,0.0,19.19,28.26,-8.17,1704.09,1755695348.1053734,14:09:08
173493.0,71.0,99.0,99.0,3.0,0.19,-0.06,10.3,-0.02,0.01,0.0,19.21,28.26,-8.17,1704.31,1755695348.1555202,14:09:08
173514.0,71.0,99.0,99.0,3.0,0.19,-0.06,10.3,-0.03,0.01,0.0,19.2,28.26,-8.17,1704.52,1755695348.2054856,14:09:08
173535.0,71.0,99.0,99.0,3.0,0.16,-0.05,10.32,-0.02,0.01,0.0,19.19,28.27,-8.17,1704.74,1755695348.258385,14:09:08
173556.0,71.0,99.0,99.0,3.0,0.17,-0.06,10.3,-0.03,0.01,0.01,19.2,28.27,-8.17,1704.96,1755695348.3045733,14:09:08
173577.0,71.0,99.0,99.0,3.0,0.18,-0.05,10.32,-0.02,0.01,0.0,19.19,28.27,-8.18,1705.17,1755695348.355284,14:09:08
173598.0,20.0,99.0,99.0,3.0,0.17,-0.07,10.33,-0.03,0.01,0.0,19.19,28.28,-8.18,1705.39,1755695348.406873,14:09:08
173619.0,20.0,99.0,99.0,3.0,0.16,-0.05,10.29,-0.02,0.01,0.01,19.19,28.28,-8.18,1705.61,1755695348.4581194,14:09:08
173641.0,20.0,99.0,99.0,3.0,0.18,-0.06,10.31,-0.03,0.01,0.0,19.19,28.29,-8.18,1705.83,1755695348.5106747,14:09:08
173662.0,20.0,99.0,99.0,3.0,0.17,-0.02,10.31,-0.02,0.01,0.01,19.18,28.29,-8.18,1706.05,1755695348.56833,14:09:08
173684.0,20.0,99.0,99.0,3.0,0.16,-0.05,10.34,-0.03,0.01,0.01,19.19,28.29,-8.18,1706.28,1755695348.6266158,14:09:08
173705.0,71.0,99.0,99.0,3.0,0.17,-0.04,10.3,-0.02,0.01,0.01,19.19,28.3,-8.18,1706.49,1755695348.6824028,14:09:08
173727.0,71.0,99.0,99.0,3.0,0.17,-0.05,10.32,-0.02,0.01,0.01,19.2,28.3,-8.18,1706.72,1755695348.730349,14:09:08
173749.0,71.0,99.0,99.0,3.0,0.17,-0.04,10.3,-0.02,0.01,0.0,19.19,28.3,-8.18,1706.95,1755695348.8316436,14:09:08
173770.0,71.0,99.0,99.0,3.0,0.16,-0.06,10.28,-0.03,0.01,0.0,19.19,28.31,-8.18,1707.16,1755695348.8856947,14:09:08
173791.0,71.0,99.0,99.0,3.0,0.17,-0.04,10.29,-0.03,0.01,0.0,19.2,28.31,-8.19,1707.38,1755695348.936932,14:09:08
173813.0,71.0,99.0,99.0,3.0,0.17,-0.05,10.32,-0.03,0.01,0.0,19.2,28.31,-8.19,1707.6,1755695348.9888096,14:09:08
173834.0,71.0,99.0,99.0,3.0,0.17,-0.07,10.29,-0.03,0.01,0.0,19.18,28.32,-8.19,1707.82,1755695349.1235042,14:09:09
173856.0,71.0,99.0,99.0,3.0,0.18,-0.05,10.32,-0.03,0.01,0.01,19.19,28.32,-8.19,1708.05,1755695349.1824985,14:09:09
173877.0,71.0,99.0,99.0,3.0,0.17,-0.04,10.31,-0.02,0.01,0.01,19.19,28.33,-8.19,1708.26,1755695349.3253481,14:09:09
173898.0,71.0,99.0,99.0,3.0,0.18,-0.06,10.32,-0.02,0.01,0.0,19.2,28.33,-8.19,1708.48,1755695349.375842,14:09:09
173920.0,71.0,99.0,99.0,3.0,0.19,-0.03,10.29,-0.03,0.01,0.01,19.19,28.33,-8.19,1708.71,1755695349.4348166,14:09:09
173941.0,71.0,99.0,99.0,3.0,0.17,-0.04,10.3,-0.03,0.01,0.0,19.21,28.34,-8.19,1708.92,1755695349.4845421,14:09:09
173963.0,71.0,99.0,99.0,3.0,0.18,-0.05,10.32,-0.03,0.01,0.0,19.22,28.34,-8.19,1709.15,1755695349.5314705,14:09:09
173984.0,71.0,99.0,99.0,3.0,0.2,-0.04,10.31,-0.03,0.01,0.0,19.2,28.35,-8.19,1709.37,1755695349.5834484,14:09:09
174005.0,71.0,99.0,99.0,3.0,0.17,-0.05,10.32,-0.03,0.01,0.0,19.2,28.35,-8.2,1709.58,1755695349.637832,14:09:09
174027.0,71.0,99.0,99.0,3.0,0.17,-0.04,10.32,-0.03,0.01,0.0,19.2,28.35,-8.2,1709.81,1755695349.7328634,14:09:09
174048.0,71.0,99.0,99.0,3.0,0.17,-0.05,10.31,-0.02,0.01,0.0,19.18,28.36,-8.2,1710.03,1755695349.7844696,14:09:09
174070.0,71.0,99.0,99.0,3.0,0.16,-0.04,10.29,-0.02,0.01,0.0,19.22,28.36,-8.2,1710.25,1755695349.850015,14:09:09
174091.0,71.0,99.0,99.0,3.0,0.17,-0.04,10.33,-0.03,0.01,0.0,19.21,28.36,-8.2,1710.47,1755695349.9014163,14:09:09
174113.0,71.0,99.0,99.0,3.0,0.16,-0.05,10.33,-0.03,0.01,0.01,19.21,28.37,-8.2,1710.7,1755695349.9489346,14:09:09
174135.0,71.0,99.0,99.0,3.0,0.17,-0.04,10.3,-0.03,0.01,0.0,19.19,28.37,-8.2,1710.93,1755695350.0032425,14:09:10
174156.0,71.0,99.0,99.0,3.0,0.19,-0.04,10.3,-0.03,0.01,0.0,19.2,28.37,-8.2,1711.14,1755695350.0512338,14:09:10
174178.0,71.0,99.0,99.0,3.0,0.17,-0.05,10.32,-0.03,0.01,0.0,19.2,28.38,-8.2,1711.37,1755695350.0985131,14:09:10
174199.0,71.0,99.0,99.0,3.0,0.18,-0.05,10.32,-0.03,0.01,0.0,19.19,28.38,-8.2,1711.59,1755695350.1511111,14:09:10
174221.0,71.0,99.0,99.0,3.0,0.17,-0.04,10.31,-0.03,0.01,0.0,19.2,28.39,-8.21,1711.81,1755695350.2016459,14:09:10
174242.0,71.0,99.0,99.0,3.0,0.16,-0.05,10.34,-0.03,0.01,0.01,19.2,28.39,-8.21,1712.03,1755695350.2579787,14:09:10
174264.0,71.0,99.0,99.0,3.0,0.17,-0.05,10.35,-0.03,0.01,0.0,19.19,28.39,-8.21,1712.26,1755695350.3073595,14:09:10
174285.0,71.0,99.0,99.0,3.0,0.17,-0.05,10.32,-0.02,0.01,0.0,19.2,28.4,-8.21,1712.47,1755695350.3561368,14:09:10
174306.0,71.0,99.0,99.0,3.0,0.15,-0.03,10.32,-0.03,0.01,0.01,19.2,28.4,-8.21,1712.69,1755695350.4065797,14:09:10
174328.0,71.0,99.0,99.0,3.0,0.17,-0.05,10.31,-0.02,0.01,0.01,19.19,28.4,-8.21,1712.92,1755695350.455619,14:09:10
174349.0,71.0,99.0,99.0,3.0,0.19,-0.05,10.33,-0.02,0.01,0.0,19.2,28.41,-8.21,1713.13,1755695350.5048673,14:09:10
174371.0,71.0,99.0,99.0,3.0,0.15,-0.04,10.31,-0.03,0.01,0.0,19.22,28.41,-8.21,1713.36,1755695350.6521454,14:09:10
174392.0,71.0,99.0,99.0,3.0,0.18,-0.05,10.28,-0.03,0.01,0.01,19.19,28.41,-8.21,1713.58,1755695350.7035155,14:09:10
174414.0,71.0,99.0,99.0,3.0,0.18,-0.07,10.32,-0.02,0.01,0.0,19.21,28.42,-8.21,1713.8,1755695350.7518454,14:09:10
174436.0,71.0,99.0,99.0,3.0,0.18,-0.03,10.32,-0.02,0.01,0.0,19.19,28.42,-8.22,1714.03,1755695350.8039796,14:09:10
174457.0,71.0,99.0,99.0,3.0,0.19,-0.04,10.3,-0.02,0.01,0.01,19.2,28.43,-8.22,1714.25,1755695350.8645492,14:09:10
174479.0,71.0,99.0,99.0,3.0,0.17,-0.03,10.32,-0.03,0.01,0.0,19.22,28.43,-8.22,1714.47,1755695350.913762,14:09:10
174500.0,71.0,99.0,99.0,3.0,0.17,-0.05,10.29,-0.02,0.01,0.0,19.21,28.43,-8.22,1714.69,1755695350.9655168,14:09:10
174521.0,71.0,99.0,99.0,3.0,0.16,-0.03,10.31,-0.03,0.01,0.01,19.22,28.44,-8.22,1714.91,1755695351.0166457,14:09:11
174543.0,71.0,99.0,99.0,3.0,0.2,-0.06,10.32,-0.02,0.01,0.01,19.22,28.44,-8.22,1715.13,1755695351.068355,14:09:11
174564.0,71.0,99.0,99.0,3.0,0.19,-0.05,10.31,-0.03,0.01,0.01,19.2,28.45,-8.22,1715.35,1755695351.1189892,14:09:11
174586.0,71.0,99.0,99.0,3.0,0.16,-0.04,10.33,-0.02,0.01,0.0,19.19,28.45,-8.22,1715.58,1755695351.1689785,14:09:11
174607.0,71.0,99.0,99.0,3.0,0.16,-0.04,10.31,-0.03,0.01,0.01,19.2,28.45,-8.22,1715.79,1755695351.2236714,14:09:11
174629.0,71.0,99.0,99.0,3.0,0.17,-0.04,10.31,-0.02,0.01,0.01,19.18,28.46,-8.22,1716.02,1755695351.2748556,14:09:11
174650.0,71.0,99.0,99.0,3.0,0.16,-0.04,10.33,-0.03,0.01,0.0,19.19,28.46,-8.23,1716.24,1755695351.3255477,14:09:11
174672.0,71.0,99.0,99.0,3.0,0.16,-0.05,10.3,-0.03,0.01,0.0,19.19,28.46,-8.23,1716.47,1755695351.3770502,14:09:11
174693.0,71.0,99.0,99.0,3.0,0.17,-0.05,10.3,-0.02,0.01,0.0,19.2,28.47,-8.23,1716.68,1755695351.4272587,14:09:11
174714.0,71.0,99.0,99.0,3.0,0.18,-0.05,10.3,-0.02,0.01,0.0,19.21,28.47,-8.23,1716.9,1755695351.4788022,14:09:11
174736.0,71.0,99.0,99.0,3.0,0.18,-0.04,10.3,-0.02,0.01,0.01,19.19,28.47,-8.23,1717.12,1755695351.5306666,14:09:11
174757.0,71.0,99.0,99.0,3.0,0.15,-0.05,10.31,-0.03,0.01,0.0,19.2,28.48,-8.23,1717.34,1755695351.5905824,14:09:11
174779.0,71.0,99.0,99.0,3.0,0.17,-0.04,10.31,-0.03,0.01,0.0,19.2,28.48,-8.23,1717.57,1755695351.6405659,14:09:11
174800.0,71.0,99.0,99.0,3.0,0.15,-0.03,10.28,-0.02,0.01,0.0,19.21,28.48,-8.23,1717.78,1755695351.6991596,14:09:11
174821.0,71.0,99.0,99.0,3.0,0.16,-0.04,10.3,-0.03,0.01,0.01,19.22,28.49,-8.23,1718.0,1755695351.7463157,14:09:11
174843.0,71.0,99.0,99.0,3.0,0.18,-0.04,10.29,-0.02,0.01,0.0,19.19,28.49,-8.23,1718.23,1755695351.7952323,14:09:11
174864.0,71.0,99.0,99.0,3.0,0.17,-0.04,10.29,-0.03,0.01,0.01,19.2,28.49,-8.23,1718.44,1755695351.8491387,14:09:11
174886.0,71.0,99.0,99.0,3.0,0.16,-0.04,10.32,-0.02,0.01,0.0,19.19,28.5,-8.24,1718.67,1755695351.9071977,14:09:11
174907.0,71.0,99.0,99.0,3.0,0.17,-0.05,10.31,-0.02,0.01,0.01,19.21,28.5,-8.24,1718.89,1755695351.956381,14:09:11
174928.0,71.0,99.0,99.0,3.0,0.18,-0.05,10.32,-0.02,0.01,0.01,19.22,28.51,-8.24,1719.1,1755695352.0030475,14:09:12
174950.0,71.0,99.0,99.0,3.0,0.17,-0.03,10.29,-0.02,0.01,0.01,19.2,28.51,-8.24,1719.33,1755695352.0576813,14:09:12
174971.0,71.0,99.0,99.0,3.0,0.16,-0.06,10.3,-0.02,0.01,0.01,19.21,28.51,-8.24,1719.55,1755695352.1124098,14:09:12
174993.0,71.0,99.0,99.0,3.0,0.16,-0.05,10.32,-0.02,0.01,0.01,19.22,28.52,-8.24,1719.77,1755695352.170666,14:09:12
175014.0,71.0,99.0,99.0,3.0,0.18,-0.04,10.35,-0.03,0.01,0.0,19.23,28.52,-8.24,1719.99,1755695352.2203977,14:09:12
175036.0,71.0,99.0,99.0,3.0,0.19,-0.04,10.3,-0.03,0.01,0.01,19.21,28.52,-8.24,1720.22,1755695352.2721171,14:09:12
175058.0,71.0,99.0,99.0,3.0,0.17,-0.05,10.31,-0.02,0.01,0.01,19.2,28.53,-8.24,1720.44,1755695352.3232508,14:09:12
175079.0,71.0,99.0,99.0,3.0,0.17,-0.06,10.32,-0.03,0.01,0.0,19.21,28.53,-8.24,1720.66,1755695352.387512,14:09:12
175101.0,71.0,99.0,99.0,3.0,0.17,-0.05,10.29,-0.03,0.01,0.0,19.23,28.54,-8.25,1720.89,1755695352.4390073,14:09:12
175122.0,71.0,99.0,99.0,3.0,0.16,-0.05,10.3,-0.03,0.01,0.0,19.21,28.54,-8.25,1721.1,1755695352.4903917,14:09:12
175144.0,71.0,99.0,99.0,3.0,0.19,-0.05,10.31,-0.03,0.01,0.01,19.22,28.54,-8.25,1721.33,1755695352.539521,14:09:12
175165.0,71.0,99.0,99.0,3.0,0.16,-0.05,10.28,-0.02,0.01,0.0,19.22,28.55,-8.25,1721.55,1755695352.5981617,14:09:12
175187.0,71.0,99.0,99.0,3.0,0.18,-0.05,10.35,-0.03,0.01,0.01,19.2,28.55,-8.25,1721.77,1755695352.6480923,14:09:12
175208.0,71.0,99.0,99.0,3.0,0.16,-0.06,10.31,-0.03,0.01,0.0,19.22,28.55,-8.25,1721.99,1755695352.699055,14:09:12
175229.0,71.0,99.0,99.0,3.0,0.17,-0.04,10.29,-0.02,0.01,0.0,19.21,28.56,-8.25,1722.21,1755695352.7503667,14:09:12
175251.0,71.0,99.0,99.0,3.0,0.19,-0.05,10.31,-0.03,0.01,0.0,19.2,28.56,-8.25,1722.43,1755695352.7977037,14:09:12
175272.0,71.0,99.0,99.0,3.0,0.18,-0.05,10.3,-0.02,0.01,0.01,19.22,28.57,-8.25,1722.65,1755695352.8514276,14:09:12
175293.0,71.0,99.0,99.0,3.0,0.18,-0.06,10.3,-0.02,0.01,0.0,19.2,28.57,-8.26,1722.87,1755695352.9027095,14:09:12
175315.0,71.0,99.0,99.0,3.0,0.17,-0.06,10.3,-0.02,0.01,0.0,19.21,28.57,-8.26,1723.09,1755695352.956208,14:09:12
175336.0,71.0,99.0,99.0,3.0,0.17,-0.03,10.33,-0.03,0.01,0.0,19.21,28.58,-8.26,1723.31,1755695353.0063803,14:09:13
175358.0,71.0,99.0,99.0,3.0,0.17,-0.06,10.33,-0.03,0.01,0.0,19.21,28.58,-8.26,1723.54,1755695353.0656114,14:09:13
175379.0,71.0,99.0,99.0,3.0,0.17,-0.04,10.32,-0.03,0.01,0.0,19.22,28.58,-8.26,1723.75,1755695353.1177595,14:09:13
175400.0,71.0,99.0,99.0,3.0,0.17,-0.06,10.31,-0.03,0.01,0.01,19.21,28.59,-8.26,1723.97,1755695353.1675525,14:09:13
175422.0,71.0,99.0,99.0,3.0,0.17,-0.05,10.3,-0.02,0.01,0.01,19.21,28.59,-8.26,1724.2,1755695353.2197924,14:09:13
175443.0,71.0,99.0,99.0,3.0,0.16,-0.05,10.31,-0.03,0.01,0.0,19.19,28.59,-8.26,1724.41,1755695353.2797794,14:09:13
175465.0,71.0,99.0,99.0,3.0,0.16,-0.04,10.32,-0.02,0.01,0.0,19.19,28.6,-8.26,1724.64,1755695353.3292148,14:09:13
175486.0,71.0,99.0,99.0,3.0,0.16,-0.04,10.29,-0.03,0.01,0.0,19.21,28.6,-8.27,1724.86,1755695353.3906927,14:09:13
175507.0,71.0,99.0,99.0,3.0,0.16,-0.05,10.3,-0.03,0.01,0.01,19.22,28.6,-8.27,1725.07,1755695353.4538376,14:09:13
175528.0,71.0,99.0,99.0,3.0,0.18,-0.06,10.31,-0.02,0.01,0.01,19.21,28.61,-8.27,1725.29,1755695353.5212202,14:09:13
175549.0,71.0,99.0,99.0,3.0,0.16,-0.06,10.32,-0.02,0.01,0.01,19.22,28.61,-8.27,1725.51,1755695353.5784059,14:09:13
175571.0,71.0,99.0,99.0,3.0,0.17,-0.04,10.31,-0.03,0.01,0.01,19.21,28.62,-8.27,1725.73,1755695353.6312852,14:09:13
175593.0,71.0,99.0,99.0,3.0,0.18,-0.04,10.32,-0.03,0.01,0.0,19.22,28.62,-8.27,1725.96,1755695353.6875196,14:09:13
175614.0,71.0,99.0,99.0,3.0,0.16,-0.05,10.3,-0.03,0.01,0.0,19.19,28.62,-8.27,1726.18,1755695353.7375672,14:09:13
175636.0,71.0,99.0,99.0,3.0,0.16,-0.05,10.3,-0.03,0.01,0.01,19.2,28.63,-8.27,1726.4,1755695353.7961605,14:09:13
175657.0,71.0,99.0,99.0,3.0,0.18,-0.01,10.3,-0.03,0.01,0.0,19.21,28.63,-8.27,1726.62,1755695353.8608181,14:09:13
175678.0,71.0,99.0,99.0,3.0,0.18,-0.05,10.3,-0.03,0.01,0.01,19.19,28.63,-8.27,1726.83,1755695353.9108443,14:09:13
175700.0,71.0,99.0,99.0,3.0,0.16,-0.05,10.34,-0.03,0.01,0.01,19.2,28.64,-8.27,1727.06,1755695353.9609368,14:09:13
175721.0,71.0,99.0,99.0,3.0,0.17,-0.04,10.31,-0.03,0.01,0.0,19.21,28.64,-8.28,1727.28,1755695354.0135503,14:09:14
175743.0,71.0,99.0,99.0,3.0,0.17,-0.03,10.3,-0.03,0.01,0.01,19.21,28.64,-8.28,1727.51,1755695354.0659287,14:09:14
175764.0,71.0,99.0,99.0,3.0,0.18,-0.04,10.3,-0.02,0.01,0.01,19.21,28.65,-8.28,1727.72,1755695354.1174994,14:09:14
175785.0,71.0,99.0,99.0,3.0,0.17,-0.06,10.33,-0.03,0.01,0.0,19.2,28.65,-8.28,1727.94,1755695354.1778245,14:09:14
175807.0,71.0,99.0,99.0,3.0,0.17,-0.05,10.32,-0.02,0.01,0.0,19.2,28.66,-8.28,1728.17,1755695354.2318275,14:09:14
175828.0,71.0,99.0,99.0,3.0,0.18,-0.05,10.31,-0.02,0.01,0.0,19.2,28.66,-8.28,1728.38,1755695354.2809052,14:09:14
175849.0,71.0,99.0,99.0,3.0,0.18,-0.05,10.34,-0.02,0.01,0.0,19.21,28.66,-8.28,1728.6,1755695354.3337839,14:09:14
175871.0,71.0,99.0,99.0,3.0,0.17,-0.05,10.32,-0.02,0.01,0.01,19.2,28.67,-8.28,1728.83,1755695354.3954604,14:09:14
175892.0,71.0,99.0,99.0,3.0,0.16,-0.02,10.31,-0.03,0.01,0.0,19.2,28.67,-8.28,1729.04,1755695354.5456114,14:09:14
175914.0,71.0,99.0,99.0,3.0,0.17,-0.04,10.32,-0.02,0.01,0.0,19.22,28.67,-8.28,1729.27,1755695354.610948,14:09:14
175935.0,71.0,99.0,99.0,3.0,0.16,-0.03,10.31,-0.03,0.01,0.01,19.22,28.68,-8.29,1729.49,1755695354.755335,14:09:14
175957.0,71.0,99.0,99.0,3.0,0.18,-0.06,10.32,-0.03,0.01,0.0,19.21,28.68,-8.29,1729.71,1755695354.803692,14:09:14
175979.0,71.0,99.0,99.0,3.0,0.18,-0.05,10.33,-0.03,0.01,0.0,19.2,28.69,-8.29,1729.94,1755695354.8567183,14:09:14
176000.0,71.0,99.0,99.0,3.0,0.18,-0.03,10.3,-0.02,0.01,0.0,19.21,28.69,-8.29,1730.16,1755695354.9054303,14:09:14
176022.0,71.0,99.0,99.0,3.0,0.16,-0.05,10.3,-0.02,0.01,0.0,19.21,28.69,-8.29,1730.38,1755695354.9539173,14:09:14
176043.0,71.0,99.0,99.0,3.0,0.18,-0.04,10.31,-0.03,0.01,0.0,19.21,28.7,-8.29,1730.6,1755695355.009689,14:09:15
176064.0,71.0,99.0,99.0,3.0,0.18,-0.04,10.31,-0.02,0.01,0.01,19.2,28.7,-8.29,1730.82,1755695355.0603545,14:09:15
176085.0,71.0,99.0,99.0,3.0,0.17,-0.05,10.31,-0.02,0.01,0.01,19.22,28.7,-8.29,1731.03,1755695355.1103163,14:09:15
176106.0,71.0,99.0,99.0,3.0,0.18,-0.05,10.29,-0.03,0.01,0.01,19.21,28.71,-8.29,1731.25,1755695355.1666017,14:09:15
176127.0,71.0,99.0,99.0,3.0,0.17,-0.05,10.32,-0.02,0.01,0.0,19.2,28.71,-8.29,1731.47,1755695355.226056,14:09:15
176148.0,71.0,99.0,99.0,3.0,0.18,-0.04,10.29,-0.02,0.01,0.0,19.2,28.71,-8.29,1731.68,1755695355.2766333,14:09:15
176169.0,71.0,99.0,99.0,3.0,0.18,-0.03,10.3,-0.03,0.01,0.0,19.18,28.72,-8.3,1731.9,1755695355.3268023,14:09:15
176191.0,71.0,99.0,99.0,3.0,0.15,-0.04,10.31,-0.02,0.01,0.01,19.2,28.72,-8.3,1732.13,1755695355.3802457,14:09:15
176212.0,71.0,99.0,99.0,3.0,0.18,-0.06,10.32,-0.03,0.01,0.0,19.21,28.73,-8.3,1732.34,1755695355.4464025,14:09:15
176233.0,71.0,99.0,99.0,3.0,0.18,-0.05,10.3,-0.03,0.01,0.0,19.2,28.73,-8.3,1732.56,1755695355.4985573,14:09:15
176256.0,71.0,99.0,99.0,3.0,0.17,-0.05,10.3,-0.02,0.01,0.01,19.2,28.73,-8.3,1732.8,1755695355.549374,14:09:15
176277.0,71.0,99.0,99.0,3.0,0.17,-0.05,10.3,-0.03,0.01,0.01,19.2,28.74,-8.3,1733.01,1755695355.6021788,14:09:15
176298.0,71.0,99.0,99.0,3.0,0.17,-0.07,10.36,-0.03,0.01,0.0,19.19,28.74,-8.3,1733.23,1755695355.6537857,14:09:15
176320.0,71.0,99.0,99.0,3.0,0.16,-0.03,10.31,-0.02,0.01,0.0,19.18,28.74,-8.3,1733.46,1755695355.7078052,14:09:15
176341.0,71.0,99.0,99.0,3.0,0.17,-0.07,10.3,-0.03,0.01,0.01,19.2,28.75,-8.3,1733.67,1755695355.7569115,14:09:15
176363.0,71.0,99.0,99.0,3.0,0.18,-0.05,10.31,-0.03,0.01,0.0,19.21,28.75,-8.31,1733.9,1755695355.8199315,14:09:15
176384.0,71.0,99.0,99.0,3.0,0.17,-0.05,10.3,-0.03,0.01,0.0,19.21,28.76,-8.31,1734.12,1755695355.8714614,14:09:15
176405.0,71.0,99.0,99.0,3.0,0.18,-0.05,10.3,-0.02,0.01,0.01,19.2,28.76,-8.31,1734.33,1755695355.9241483,14:09:15
176426.0,71.0,99.0,99.0,3.0,0.16,-0.03,10.32,-0.02,0.01,0.0,19.2,28.76,-8.31,1734.55,1755695355.9965756,14:09:15
176447.0,71.0,99.0,99.0,3.0,0.17,-0.04,10.34,-0.02,0.01,0.0,19.21,28.77,-8.31,1734.77,1755695356.0525906,14:09:16
176468.0,71.0,99.0,99.0,3.0,0.15,-0.05,10.33,-0.02,0.01,0.0,19.21,28.77,-8.31,1734.98,1755695356.1200018,14:09:16
176490.0,71.0,99.0,99.0,3.0,0.15,-0.05,10.33,-0.02,0.01,0.0,19.21,28.77,-8.31,1735.21,1755695356.1699197,14:09:16
176512.0,71.0,99.0,99.0,3.0,0.18,-0.06,10.32,-0.03,0.01,0.0,19.21,28.78,-8.31,1735.44,1755695356.2431195,14:09:16
176533.0,71.0,99.0,99.0,3.0,0.17,-0.06,10.32,-0.03,0.01,0.01,19.22,28.78,-8.31,1735.65,1755695356.2928765,14:09:16
176555.0,71.0,99.0,99.0,3.0,0.18,-0.07,10.31,-0.02,0.01,0.0,19.22,28.78,-8.32,1735.88,1755695356.3417485,14:09:16
176576.0,71.0,99.0,99.0,3.0,0.17,-0.05,10.34,-0.03,0.01,0.01,19.19,28.79,-8.32,1736.1,1755695356.3925967,14:09:16
176597.0,71.0,99.0,99.0,3.0,0.18,-0.06,10.31,-0.02,0.01,0.0,19.2,28.79,-8.32,1736.31,1755695356.4977877,14:09:16
176618.0,71.0,99.0,99.0,3.0,0.17,-0.04,10.3,-0.03,0.01,0.0,19.2,28.79,-8.32,1736.53,1755695356.5593667,14:09:16
176639.0,71.0,99.0,99.0,3.0,0.18,-0.06,10.33,-0.03,0.01,0.0,19.22,28.8,-8.32,1736.75,1755695356.702492,14:09:16
176660.0,71.0,99.0,99.0,3.0,0.17,-0.06,10.3,-0.03,0.01,0.0,19.21,28.8,-8.32,1736.96,1755695356.7564263,14:09:16
176681.0,71.0,99.0,99.0,3.0,0.17,-0.07,10.32,-0.02,0.01,0.01,19.21,28.81,-8.32,1737.18,1755695356.8043349,14:09:16
176703.0,71.0,99.0,99.0,3.0,0.18,-0.04,10.31,-0.03,0.01,0.0,19.22,28.81,-8.32,1737.41,1755695356.8559098,14:09:16
176724.0,71.0,99.0,99.0,3.0,0.16,-0.03,10.31,-0.03,0.01,0.01,19.21,28.81,-8.32,1737.62,1755695356.9094436,14:09:16
176745.0,71.0,99.0,99.0,3.0,0.16,-0.06,10.31,-0.02,0.01,0.01,19.21,28.82,-8.32,1737.84,1755695356.9594357,14:09:16
176767.0,71.0,99.0,99.0,3.0,0.18,-0.05,10.3,-0.03,0.01,0.0,19.21,28.82,-8.33,1738.07,1755695357.0136337,14:09:17
176788.0,71.0,99.0,99.0,3.0,0.17,-0.06,10.32,-0.02,0.01,0.01,19.22,28.82,-8.33,1738.28,1755695357.0679595,14:09:17
176810.0,71.0,99.0,99.0,3.0,0.18,-0.06,10.32,-0.03,0.01,0.01,19.19,28.83,-8.33,1738.51,1755695357.1182141,14:09:17
176832.0,71.0,99.0,99.0,3.0,0.16,-0.06,10.32,-0.03,0.01,0.0,19.19,28.83,-8.33,1738.74,1755695357.1695206,14:09:17
176853.0,71.0,99.0,99.0,3.0,0.16,-0.05,10.3,-0.02,0.01,0.01,19.2,28.84,-8.33,1738.95,1755695357.2188876,14:09:17
176875.0,71.0,99.0,99.0,3.0,0.17,-0.06,10.3,-0.03,0.01,0.0,19.22,28.84,-8.33,1739.18,1755695357.2759323,14:09:17
176896.0,71.0,99.0,99.0,3.0,0.18,-0.04,10.33,-0.03,0.01,0.01,19.22,28.84,-8.33,1739.4,1755695357.3260236,14:09:17
176917.0,71.0,99.0,99.0,3.0,0.17,-0.05,10.31,-0.02,0.01,0.0,19.21,28.85,-8.33,1739.61,1755695357.3875766,14:09:17
176938.0,71.0,99.0,99.0,3.0,0.15,-0.05,10.31,-0.03,0.01,0.01,19.22,28.85,-8.34,1739.83,1755695357.4396026,14:09:17
176959.0,71.0,99.0,99.0,3.0,0.15,-0.06,10.3,-0.02,0.01,0.01,19.23,28.85,-8.34,1740.05,1755695357.4889913,14:09:17
176980.0,71.0,99.0,99.0,3.0,0.17,-0.06,10.3,-0.03,0.01,0.01,19.21,28.86,-8.34,1740.26,1755695357.5414045,14:09:17
177002.0,71.0,99.0,99.0,3.0,0.17,-0.05,10.33,-0.02,0.01,0.0,19.2,28.86,-8.34,1740.49,1755695357.5906627,14:09:17
177024.0,71.0,99.0,99.0,3.0,0.18,-0.06,10.3,-0.03,0.01,0.0,19.2,28.86,-8.34,1740.72,1755695357.641411,14:09:17
177045.0,71.0,99.0,99.0,3.0,0.17,-0.05,10.32,-0.02,0.01,0.01,19.2,28.87,-8.34,1740.93,1755695357.7002897,14:09:17
177066.0,71.0,99.0,99.0,3.0,0.17,-0.06,10.31,-0.02,0.01,0.0,19.19,28.87,-8.34,1741.15,1755695357.7484908,14:09:17
177088.0,71.0,99.0,99.0,3.0,0.17,-0.05,10.33,-0.02,0.01,0.0,19.19,28.87,-8.34,1741.38,1755695357.8134816,14:09:17
177109.0,71.0,99.0,99.0,3.0,0.18,-0.04,10.3,-0.03,0.01,0.0,19.22,28.88,-8.35,1741.59,1755695357.8619006,14:09:17
177131.0,71.0,99.0,99.0,3.0,0.18,-0.06,10.32,-0.03,0.01,0.01,19.2,28.88,-8.35,1741.82,1755695357.9151216,14:09:17
177152.0,71.0,99.0,99.0,3.0,0.18,-0.05,10.28,-0.03,0.01,0.01,19.2,28.89,-8.35,1742.04,1755695357.970514,14:09:17
177173.0,71.0,99.0,99.0,3.0,0.17,-0.04,10.27,-0.03,0.01,0.0,19.2,28.89,-8.35,1742.25,1755695358.0266595,14:09:18
177194.0,71.0,99.0,99.0,3.0,0.17,-0.04,10.3,-0.03,0.01,0.01,19.2,28.89,-8.35,1742.47,1755695358.0765276,14:09:18
177216.0,71.0,99.0,99.0,3.0,0.16,-0.04,10.3,-0.02,0.01,0.01,19.21,28.9,-8.35,1742.7,1755695358.1266387,14:09:18
177237.0,71.0,99.0,99.0,3.0,0.18,-0.05,10.3,-0.03,0.01,0.01,19.21,28.9,-8.35,1742.91,1755695358.1787443,14:09:18
177258.0,71.0,99.0,99.0,3.0,0.16,-0.05,10.29,-0.02,0.01,0.0,19.2,28.9,-8.35,1743.13,1755695358.2372644,14:09:18
177280.0,71.0,99.0,99.0,3.0,0.16,-0.04,10.3,-0.03,0.01,0.0,19.21,28.91,-8.35,1743.35,1755695358.286509,14:09:18
177301.0,71.0,99.0,99.0,3.0,0.18,-0.05,10.3,-0.03,0.01,0.0,19.21,28.91,-8.35,1743.57,1755695358.3402338,14:09:18
177322.0,71.0,99.0,99.0,3.0,0.15,-0.05,10.3,-0.02,0.01,0.0,19.22,28.91,-8.35,1743.79,1755695358.393055,14:09:18
177344.0,71.0,99.0,99.0,3.0,0.16,-0.06,10.28,-0.02,0.01,0.0,19.22,28.92,-8.36,1744.01,1755695358.4597178,14:09:18
177365.0,71.0,99.0,99.0,3.0,0.17,-0.06,10.31,-0.02,0.01,0.0,19.21,28.92,-8.36,1744.23,1755695358.5091252,14:09:18
177386.0,71.0,99.0,99.0,3.0,0.16,-0.07,10.3,-0.03,0.01,0.0,19.21,28.93,-8.36,1744.45,1755695358.5579374,14:09:18
177407.0,71.0,99.0,99.0,3.0,0.16,-0.04,10.31,-0.03,0.01,0.0,19.2,28.93,-8.36,1744.66,1755695358.621108,14:09:18
177428.0,71.0,99.0,99.0,3.0,0.19,-0.04,10.32,-0.02,0.01,0.01,19.21,28.93,-8.36,1744.88,1755695358.6721444,14:09:18
177450.0,71.0,99.0,99.0,3.0,0.16,-0.04,10.3,-0.03,0.01,0.0,19.22,28.94,-8.36,1745.11,1755695358.7196443,14:09:18
177471.0,71.0,99.0,99.0,3.0,0.18,-0.05,10.31,-0.03,0.01,0.0,19.22,28.94,-8.36,1745.32,1755695358.7717137,14:09:18
177492.0,71.0,99.0,99.0,3.0,0.18,-0.06,10.31,-0.03,0.01,0.0,19.22,28.94,-8.36,1745.54,1755695358.825627,14:09:18
177514.0,71.0,99.0,99.0,3.0,0.17,-0.06,10.31,-0.03,0.01,0.0,19.21,28.95,-8.36,1745.77,1755695358.8838482,14:09:18
177536.0,71.0,99.0,99.0,3.0,0.17,-0.06,10.33,-0.03,0.01,0.0,19.22,28.95,-8.37,1745.99,1755695358.933987,14:09:18
177557.0,71.0,99.0,99.0,3.0,0.16,-0.07,10.31,-0.02,0.01,0.0,19.21,28.95,-8.37,1746.21,1755695358.9832735,14:09:18
177580.0,71.0,99.0,99.0,3.0,0.17,-0.05,10.34,-0.03,0.01,0.0,19.2,28.96,-8.37,1746.45,1755695359.0312185,14:09:19
177601.0,71.0,99.0,99.0,3.0,0.17,-0.06,10.32,-0.03,0.01,0.0,19.22,28.96,-8.37,1746.66,1755695359.0828168,14:09:19
177622.0,71.0,99.0,99.0,3.0,0.16,-0.04,10.34,-0.03,0.01,0.01,19.2,28.97,-8.37,1746.88,1755695359.132998,14:09:19
177644.0,71.0,99.0,99.0,3.0,0.17,-0.04,10.3,-0.03,0.01,0.01,19.21,28.97,-8.37,1747.11,1755695359.184236,14:09:19
177665.0,71.0,99.0,99.0,3.0,0.18,-0.04,10.31,-0.02,0.01,0.0,19.2,28.97,-8.37,1747.32,1755695359.255687,14:09:19
177687.0,71.0,99.0,99.0,3.0,0.18,-0.06,10.3,-0.03,0.01,0.01,19.22,28.98,-8.37,1747.55,1755695359.3069618,14:09:19
177708.0,71.0,99.0,99.0,3.0,0.17,-0.07,10.34,-0.03,0.01,0.01,19.21,28.98,-8.38,1747.77,1755695359.3562665,14:09:19
177730.0,71.0,99.0,99.0,3.0,0.19,-0.02,10.31,-0.03,0.01,0.0,19.21,28.98,-8.38,1748.0,1755695359.4055328,14:09:19
177751.0,71.0,99.0,99.0,3.0,0.17,-0.05,10.31,-0.03,0.01,0.0,19.22,28.99,-8.38,1748.21,1755695359.4556274,14:09:19
177772.0,71.0,99.0,99.0,3.0,0.17,-0.05,10.34,-0.02,0.01,0.0,19.21,28.99,-8.38,1748.43,1755695359.5048332,14:09:19
177794.0,71.0,99.0,99.0,3.0,0.17,-0.03,10.33,-0.03,0.01,0.01,19.21,28.99,-8.38,1748.66,1755695359.56756,14:09:19
177815.0,71.0,99.0,99.0,3.0,0.17,-0.05,10.32,-0.02,0.01,0.01,19.22,29.0,-8.38,1748.87,1755695359.6158955,14:09:19
177837.0,71.0,99.0,99.0,3.0,0.17,-0.03,10.33,-0.03,0.01,0.0,19.22,29.0,-8.38,1749.1,1755695359.6817174,14:09:19
177858.0,71.0,99.0,99.0,3.0,0.16,-0.08,10.32,-0.03,0.01,0.01,19.22,29.01,-8.38,1749.32,1755695359.7295325,14:09:19
177880.0,71.0,99.0,99.0,3.0,0.17,-0.05,10.31,-0.02,0.01,0.01,19.2,29.01,-8.38,1749.54,1755695359.78209,14:09:19
177902.0,71.0,99.0,99.0,3.0,0.17,-0.06,10.29,-0.02,0.01,0.01,19.22,29.01,-8.38,1749.77,1755695359.8341055,14:09:19
177924.0,71.0,99.0,99.0,3.0,0.19,-0.03,10.32,-0.03,0.01,0.0,19.22,29.02,-8.39,1750.0,1755695359.8919716,14:09:19
177945.0,71.0,99.0,99.0,3.0,0.17,-0.06,10.3,-0.03,0.01,0.01,19.21,29.02,-8.39,1750.21,1755695359.963097,14:09:19
177967.0,71.0,99.0,99.0,3.0,0.17,-0.05,10.31,-0.03,0.01,0.0,19.2,29.02,-8.39,1750.44,1755695360.0142515,14:09:20
177988.0,71.0,99.0,99.0,3.0,0.16,-0.05,10.32,-0.02,0.01,0.0,19.2,29.03,-8.39,1750.66,1755695360.0678618,14:09:20
178010.0,71.0,99.0,99.0,3.0,0.17,-0.04,10.3,-0.02,0.01,0.01,19.21,29.03,-8.39,1750.88,1755695360.1214101,14:09:20
178031.0,71.0,99.0,99.0,3.0,0.16,-0.05,10.3,-0.03,0.01,0.0,19.21,29.04,-8.39,1751.1,1755695360.1727905,14:09:20
178053.0,71.0,99.0,99.0,3.0,0.16,-0.06,10.3,-0.03,0.01,0.01,19.21,29.04,-8.39,1751.33,1755695360.2224977,14:09:20
178074.0,71.0,99.0,99.0,3.0,0.17,-0.05,10.32,-0.02,0.01,0.01,19.21,29.04,-8.39,1751.54,1755695360.27531,14:09:20
178095.0,71.0,99.0,99.0,3.0,0.18,-0.07,10.32,-0.02,0.01,0.01,19.22,29.05,-8.39,1751.76,1755695360.3229773,14:09:20
178117.0,71.0,99.0,99.0,3.0,0.16,-0.03,10.32,-0.02,0.01,0.01,19.2,29.05,-8.4,1751.99,1755695360.3751342,14:09:20
178138.0,71.0,99.0,99.0,3.0,0.18,-0.04,10.3,-0.02,0.01,0.0,19.2,29.05,-8.4,1752.2,1755695360.4289322,14:09:20
178160.0,71.0,99.0,99.0,3.0,0.18,-0.06,10.3,-0.03,0.01,0.01,19.2,29.06,-8.4,1752.43,1755695360.4790125,14:09:20
178181.0,71.0,99.0,99.0,3.0,0.16,-0.03,10.29,-0.03,0.01,0.0,19.21,29.06,-8.4,1752.65,1755695360.5357785,14:09:20
178203.0,71.0,99.0,99.0,3.0,0.18,-0.06,10.3,-0.03,0.01,0.01,19.21,29.06,-8.4,1752.87,1755695360.590497,14:09:20
178224.0,71.0,99.0,99.0,3.0,0.18,-0.03,10.32,-0.03,0.01,0.01,19.21,29.07,-8.4,1753.09,1755695360.6475077,14:09:20
178245.0,71.0,99.0,99.0,3.0,0.15,-0.05,10.31,-0.03,0.01,0.0,19.22,29.07,-8.4,1753.31,1755695360.697637,14:09:20
178267.0,71.0,99.0,99.0,3.0,0.16,-0.04,10.3,-0.02,0.01,0.0,19.21,29.07,-8.4,1753.53,1755695360.7503726,14:09:20
178288.0,71.0,99.0,99.0,3.0,0.19,-0.05,10.3,-0.02,0.01,0.0,19.21,29.08,-8.4,1753.75,1755695360.8110826,14:09:20
178310.0,71.0,99.0,99.0,3.0,0.17,-0.06,10.33,-0.03,0.01,0.0,19.22,29.08,-8.4,1753.98,1755695360.858304,14:09:20
178331.0,71.0,99.0,99.0,3.0,0.19,-0.04,10.3,-0.02,0.01,0.01,19.21,29.09,-8.41,1754.19,1755695360.9091394,14:09:20
178353.0,71.0,99.0,99.0,3.0,0.18,-0.08,10.34,-0.03,0.01,0.0,19.22,29.09,-8.41,1754.42,1755695360.9647195,14:09:20
178374.0,71.0,99.0,99.0,3.0,0.17,-0.05,10.31,-0.03,0.01,0.0,19.23,29.09,-8.41,1754.64,1755695361.0149386,14:09:21
178395.0,71.0,99.0,99.0,3.0,0.18,-0.06,10.32,-0.03,0.01,0.0,19.2,29.1,-8.41,1754.85,1755695361.0662937,14:09:21
178417.0,71.0,99.0,99.0,3.0,0.16,-0.04,10.32,-0.03,0.01,0.0,19.22,29.1,-8.41,1755.08,1755695361.1163123,14:09:21
178438.0,71.0,99.0,99.0,3.0,0.18,-0.06,10.29,-0.02,0.01,0.0,19.22,29.1,-8.41,1755.3,1755695361.1632605,14:09:21
178459.0,71.0,99.0,99.0,3.0,0.17,-0.04,10.3,-0.02,0.01,0.0,19.21,29.11,-8.41,1755.51,1755695361.2139447,14:09:21
178481.0,71.0,99.0,99.0,3.0,0.16,-0.05,10.34,-0.02,0.01,0.0,19.22,29.11,-8.41,1755.74,1755695361.2876103,14:09:21
178502.0,71.0,99.0,99.0,3.0,0.2,-0.04,10.31,-0.02,0.01,0.01,19.19,29.12,-8.41,1755.96,1755695361.3365436,14:09:21
178523.0,71.0,99.0,99.0,3.0,0.18,-0.03,10.29,-0.03,0.01,0.0,19.2,29.12,-8.42,1756.17,1755695361.3879652,14:09:21
178544.0,71.0,99.0,99.0,3.0,0.17,-0.04,10.31,-0.02,0.01,0.0,19.21,29.12,-8.42,1756.39,1755695361.4414816,14:09:21
178565.0,71.0,99.0,99.0,3.0,0.17,-0.05,10.31,-0.03,0.01,0.0,19.2,29.13,-8.42,1756.61,1755695361.4925904,14:09:21
178586.0,71.0,99.0,99.0,3.0,0.17,-0.05,10.3,-0.03,0.01,0.0,19.21,29.13,-8.42,1756.82,1755695361.543665,14:09:21
178607.0,71.0,99.0,99.0,3.0,0.15,-0.07,10.32,-0.03,0.01,0.0,19.21,29.13,-8.42,1757.04,1755695361.5924792,14:09:21
178628.0,71.0,99.0,99.0,3.0,0.17,-0.05,10.34,-0.02,0.01,0.0,19.21,29.14,-8.42,1757.26,1755695361.642159,14:09:21
178651.0,71.0,99.0,99.0,3.0,0.16,-0.03,10.3,-0.02,0.01,0.0,19.22,29.14,-8.42,1757.49,1755695361.6931062,14:09:21
178672.0,71.0,99.0,99.0,3.0,0.18,-0.04,10.33,-0.02,0.01,0.0,19.21,29.14,-8.42,1757.71,1755695361.743563,14:09:21
178693.0,71.0,99.0,99.0,3.0,0.17,-0.04,10.3,-0.02,0.01,0.0,19.21,29.15,-8.42,1757.93,1755695361.7964644,14:09:21
178715.0,71.0,99.0,99.0,3.0,0.17,-0.06,10.3,-0.03,0.01,0.0,19.2,29.15,-8.42,1758.15,1755695361.8473487,14:09:21
178736.0,71.0,99.0,99.0,3.0,0.16,-0.04,10.31,-0.02,0.01,0.0,19.2,29.16,-8.43,1758.37,1755695361.8975842,14:09:21
178757.0,71.0,99.0,99.0,3.0,0.18,-0.06,10.3,-0.03,0.01,0.01,19.22,29.16,-8.43,1758.59,1755695361.9592516,14:09:21
178780.0,71.0,99.0,99.0,3.0,0.17,-0.05,10.34,-0.03,0.01,0.0,19.2,29.16,-8.43,1758.82,1755695362.127015,14:09:22
178801.0,71.0,99.0,99.0,3.0,0.18,-0.05,10.34,-0.03,0.01,0.01,19.21,29.17,-8.43,1759.04,1755695362.1777952,14:09:22
178823.0,71.0,99.0,99.0,3.0,0.16,-0.05,10.3,-0.02,0.01,0.01,19.2,29.17,-8.43,1759.27,1755695362.2298508,14:09:22
178844.0,71.0,99.0,99.0,3.0,0.17,-0.04,10.31,-0.03,0.01,0.01,19.2,29.17,-8.43,1759.48,1755695362.2868574,14:09:22
178865.0,71.0,99.0,99.0,3.0,0.17,-0.05,10.31,-0.02,0.01,0.0,19.21,29.18,-8.43,1759.7,1755695362.3369927,14:09:22
178887.0,71.0,99.0,99.0,3.0,0.16,-0.05,10.29,-0.02,0.01,0.01,19.21,29.18,-8.43,1759.93,1755695362.3934007,14:09:22
178908.0,71.0,99.0,99.0,3.0,0.17,-0.06,10.32,-0.02,0.01,0.01,19.21,29.18,-8.43,1760.14,1755695362.4414916,14:09:22
178929.0,71.0,99.0,99.0,3.0,0.17,-0.05,10.31,-0.02,0.01,0.0,19.21,29.19,-8.44,1760.36,1755695362.5027611,14:09:22
178951.0,71.0,99.0,99.0,3.0,0.17,-0.05,10.31,-0.03,0.01,0.0,19.2,29.19,-8.44,1760.59,1755695362.552786,14:09:22
178972.0,71.0,99.0,99.0,3.0,0.16,-0.04,10.3,-0.03,0.01,0.01,19.19,29.2,-8.44,1760.8,1755695362.6020575,14:09:22
178994.0,71.0,99.0,99.0,3.0,0.17,-0.04,10.3,-0.03,0.01,0.0,19.21,29.2,-8.44,1761.03,1755695362.653259,14:09:22
179015.0,71.0,99.0,99.0,3.0,0.18,-0.04,10.3,-0.02,0.01,0.0,19.22,29.2,-8.44,1761.25,1755695362.7064528,14:09:22
179036.0,71.0,99.0,99.0,3.0,0.16,-0.03,10.3,-0.03,0.01,0.0,19.21,29.21,-8.44,1761.46,1755695362.7571979,14:09:22
179058.0,71.0,99.0,99.0,3.0,0.19,-0.04,10.29,-0.03,0.01,0.01,19.21,29.21,-8.44,1761.69,1755695362.8044672,14:09:22
179079.0,71.0,99.0,99.0,3.0,0.17,-0.04,10.3,-0.03,0.01,0.01,19.21,29.21,-8.44,1761.91,1755695362.8521063,14:09:22
179101.0,71.0,99.0,99.0,3.0,0.17,-0.07,10.3,-0.02,0.01,0.01,19.21,29.22,-8.44,1762.13,1755695362.9067602,14:09:22
179122.0,71.0,99.0,99.0,3.0,0.17,-0.06,10.3,-0.03,0.01,0.01,19.2,29.22,-8.44,1762.35,1755695362.9607599,14:09:22
179143.0,71.0,99.0,99.0,3.0,0.17,-0.05,10.31,-0.02,0.01,0.0,19.23,29.23,-8.45,1762.56,1755695363.0113077,14:09:23
179165.0,71.0,99.0,99.0,3.0,0.18,-0.03,10.32,-0.02,0.01,0.0,19.19,29.23,-8.45,1762.79,1755695363.0625892,14:09:23
179186.0,71.0,99.0,99.0,3.0,0.17,-0.06,10.31,-0.03,0.01,0.01,19.21,29.23,-8.45,1763.01,1755695363.1144102,14:09:23
179208.0,71.0,99.0,99.0,3.0,0.19,-0.04,10.3,-0.03,0.01,0.01,19.21,29.24,-8.45,1763.23,1755695363.1663496,14:09:23
179229.0,71.0,99.0,99.0,3.0,0.17,-0.04,10.33,-0.02,0.01,0.0,19.21,29.24,-8.45,1763.45,1755695363.2133393,14:09:23
179250.0,71.0,99.0,99.0,3.0,0.17,-0.06,10.31,-0.02,0.01,0.0,19.2,29.24,-8.45,1763.67,1755695363.27771,14:09:23
179272.0,71.0,99.0,99.0,3.0,0.16,-0.05,10.32,-0.02,0.01,0.0,19.19,29.25,-8.45,1763.9,1755695363.33811,14:09:23
179293.0,71.0,99.0,99.0,3.0,0.17,-0.07,10.31,-0.03,0.01,0.0,19.23,29.25,-8.45,1764.11,1755695363.3887663,14:09:23
179315.0,71.0,99.0,99.0,3.0,0.18,-0.05,10.31,-0.02,0.01,0.0,19.23,29.25,-8.45,1764.34,1755695363.45013,14:09:23
179336.0,71.0,99.0,99.0,3.0,0.17,-0.05,10.32,-0.03,0.01,0.0,19.2,29.26,-8.45,1764.56,1755695363.5147755,14:09:23
179358.0,71.0,99.0,99.0,3.0,0.16,-0.05,10.31,-0.03,0.01,0.0,19.21,29.26,-8.46,1764.78,1755695363.5634024,14:09:23
179380.0,71.0,99.0,99.0,3.0,0.17,-0.05,10.31,-0.02,0.01,0.0,19.2,29.27,-8.46,1765.01,1755695363.6116164,14:09:23
179401.0,71.0,99.0,99.0,3.0,0.15,-0.07,10.33,-0.02,0.01,0.0,19.22,29.27,-8.46,1765.23,1755695363.663114,14:09:23
179422.0,71.0,99.0,99.0,3.0,0.17,-0.05,10.3,-0.03,0.01,0.01,19.19,29.27,-8.46,1765.44,1755695363.7097747,14:09:23
179444.0,71.0,99.0,99.0,3.0,0.17,-0.05,10.33,-0.02,0.01,0.0,19.21,29.28,-8.46,1765.67,1755695363.7580607,14:09:23
179465.0,71.0,99.0,99.0,3.0,0.17,-0.07,10.32,-0.03,0.01,0.0,19.2,29.28,-8.46,1765.89,1755695363.810446,14:09:23
179487.0,71.0,99.0,99.0,3.0,0.17,-0.05,10.28,-0.02,0.01,0.0,19.21,29.28,-8.46,1766.11,1755695363.85829,14:09:23
179508.0,71.0,99.0,99.0,3.0,0.17,-0.05,10.3,-0.03,0.01,0.0,19.2,29.29,-8.46,1766.33,1755695363.9058657,14:09:23
179529.0,71.0,99.0,99.0,3.0,0.19,-0.04,10.31,-0.02,0.01,0.01,19.21,29.29,-8.47,1766.55,1755695363.9607258,14:09:23
179551.0,71.0,99.0,99.0,3.0,0.18,-0.06,10.31,-0.03,0.01,0.01,19.22,29.3,-8.47,1766.77,1755695364.0102346,14:09:24
179572.0,71.0,99.0,99.0,3.0,0.16,-0.05,10.31,-0.02,0.01,0.01,19.22,29.3,-8.47,1766.99,1755695364.1708736,14:09:24
179594.0,71.0,99.0,99.0,3.0,0.18,-0.06,10.28,-0.03,0.01,0.01,19.2,29.3,-8.47,1767.22,1755695364.2183337,14:09:24
179615.0,71.0,99.0,99.0,3.0,0.17,-0.04,10.33,-0.03,0.01,0.01,19.21,29.31,-8.47,1767.43,1755695364.2691042,14:09:24
179637.0,71.0,99.0,99.0,3.0,0.19,-0.06,10.32,-0.02,0.01,0.01,19.2,29.31,-8.47,1767.66,1755695364.317133,14:09:24
179659.0,71.0,99.0,99.0,3.0,0.17,-0.05,10.31,-0.02,0.01,0.0,19.21,29.31,-8.47,1767.89,1755695364.369355,14:09:24
179680.0,71.0,99.0,99.0,3.0,0.19,-0.05,10.34,-0.02,0.01,0.0,19.19,29.32,-8.47,1768.1,1755695364.4755359,14:09:24
179702.0,71.0,99.0,99.0,3.0,0.17,-0.06,10.29,-0.02,0.01,0.0,19.2,29.32,-8.47,1768.33,1755695364.5227108,14:09:24
179723.0,71.0,99.0,99.0,3.0,0.17,-0.07,10.31,-0.02,0.01,0.01,19.2,29.33,-8.48,1768.55,1755695364.5733542,14:09:24
179744.0,71.0,99.0,99.0,3.0,0.17,-0.04,10.32,-0.03,0.01,0.01,19.22,29.33,-8.48,1768.76,1755695364.6265602,14:09:24
179766.0,71.0,99.0,99.0,3.0,0.15,-0.06,10.3,-0.03,0.01,0.01,19.19,29.33,-8.48,1768.99,1755695364.6781945,14:09:24
179787.0,71.0,99.0,99.0,3.0,0.17,-0.05,10.31,-0.03,0.01,0.01,19.19,29.34,-8.48,1769.21,1755695364.7257936,14:09:24
179809.0,71.0,99.0,99.0,3.0,0.18,-0.06,10.33,-0.02,0.01,0.01,19.21,29.34,-8.48,1769.43,1755695364.7795067,14:09:24
179830.0,71.0,99.0,99.0,3.0,0.17,-0.05,10.34,-0.02,0.01,0.01,19.2,29.34,-8.48,1769.65,1755695364.8258204,14:09:24
179852.0,71.0,99.0,99.0,3.0,0.17,-0.04,10.3,-0.02,0.01,0.01,19.2,29.35,-8.48,1769.88,1755695364.8749874,14:09:24
179873.0,71.0,99.0,99.0,3.0,0.18,-0.06,10.31,-0.03,0.01,0.01,19.2,29.35,-8.48,1770.09,1755695364.9270673,14:09:24
179894.0,71.0,99.0,99.0,3.0,0.19,-0.05,10.31,-0.03,0.01,0.0,19.18,29.35,-8.48,1770.31,1755695364.9834282,14:09:24
179916.0,71.0,99.0,99.0,3.0,0.18,-0.05,10.3,-0.03,0.01,0.0,19.22,29.36,-8.49,1770.54,1755695365.030331,14:09:25
179937.0,71.0,99.0,99.0,3.0,0.19,-0.04,10.32,-0.02,0.01,0.01,19.19,29.36,-8.49,1770.75,1755695365.088234,14:09:25
179959.0,71.0,99.0,99.0,3.0,0.18,-0.04,10.26,-0.03,0.01,0.0,19.19,29.37,-8.49,1770.98,1755695365.1972961,14:09:25
179980.0,71.0,99.0,99.0,3.0,0.18,-0.05,10.3,-0.03,0.01,0.01,19.2,29.37,-8.49,1771.2,1755695365.301614,14:09:25
180001.0,0.0,0.0,0.0,0.0,0.16,-0.04,10.32,-0.02,0.01,0.0,19.19,29.37,-8.49,1771.41,1755695365.3959565,14:09:25
180042.0,71.0,99.0,99.0,3.0,0.17,-0.06,10.31,-0.02,0.01,0.0,19.22,29.38,-8.49,1771.84,1755695365.4433901,14:09:25
180064.0,71.0,99.0,99.0,3.0,0.17,-0.05,10.3,-0.03,0.01,0.0,19.19,29.38,-8.49,1772.06,1755695365.4937932,14:09:25
180085.0,71.0,99.0,99.0,3.0,0.18,-0.03,10.3,-0.02,0.01,0.01,19.22,29.39,-8.49,1772.28,1755695365.5421216,14:09:25
180106.0,71.0,99.0,99.0,3.0,0.17,-0.05,10.3,-0.02,0.01,0.01,19.2,29.39,-8.49,1772.49,1755695365.5904665,14:09:25
180128.0,71.0,99.0,99.0,3.0,0.16,-0.04,10.31,-0.03,0.01,0.0,19.2,29.4,-8.5,1772.72,1755695365.6400628,14:09:25
180149.0,71.0,99.0,99.0,3.0,0.17,-0.04,10.3,-0.02,0.01,0.01,19.2,29.4,-8.5,1772.94,1755695365.701135,14:09:25
180170.0,71.0,99.0,99.0,3.0,0.17,-0.05,10.34,-0.03,0.01,0.01,19.2,29.4,-8.5,1773.15,1755695365.7572815,14:09:25
180191.0,71.0,99.0,99.0,3.0,0.19,-0.06,10.33,-0.02,0.01,0.01,19.19,29.41,-8.5,1773.37,1755695365.8047428,14:09:25
180212.0,71.0,99.0,99.0,3.0,0.18,-0.06,10.33,-0.03,0.01,0.0,19.2,29.41,-8.5,1773.59,1755695365.8543656,14:09:25
180233.0,71.0,99.0,99.0,3.0,0.17,-0.02,10.33,-0.03,0.01,0.0,19.19,29.41,-8.5,1773.81,1755695365.90632,14:09:25
180254.0,71.0,99.0,99.0,3.0,0.17,-0.06,10.31,-0.03,0.01,0.0,19.2,29.42,-8.5,1774.02,1755695365.9562294,14:09:25
180275.0,71.0,99.0,99.0,3.0,0.16,-0.05,10.31,-0.03,0.01,0.0,19.21,29.42,-8.5,1774.24,1755695366.0276825,14:09:26
180297.0,71.0,99.0,99.0,3.0,0.19,-0.05,10.31,-0.03,0.01,0.01,19.21,29.42,-8.5,1774.47,1755695366.074549,14:09:26
180318.0,71.0,99.0,99.0,3.0,0.19,-0.04,10.29,-0.03,0.01,0.0,19.18,29.43,-8.5,1774.68,1755695366.1240213,14:09:26
180340.0,71.0,99.0,99.0,3.0,0.17,-0.05,10.31,-0.02,0.01,0.0,19.2,29.43,-8.51,1774.91,1755695366.1756144,14:09:26
180361.0,71.0,99.0,99.0,3.0,0.17,-0.05,10.35,-0.02,0.01,0.0,19.19,29.44,-8.51,1775.13,1755695366.226886,14:09:26
180383.0,71.0,99.0,99.0,3.0,0.18,-0.05,10.31,-0.03,0.01,0.01,19.2,29.44,-8.51,1775.35,1755695366.3218367,14:09:26
180404.0,71.0,99.0,99.0,3.0,0.14,-0.04,10.32,-0.03,0.01,0.0,19.22,29.44,-8.51,1775.57,1755695366.3690596,14:09:26
180425.0,71.0,99.0,99.0,3.0,0.16,-0.08,10.3,-0.03,0.01,0.01,19.21,29.45,-8.51,1775.79,1755695366.4181936,14:09:26
180446.0,71.0,99.0,99.0,3.0,0.17,-0.05,10.32,-0.03,0.01,0.0,19.19,29.45,-8.51,1776.0,1755695366.4786334,14:09:26
180468.0,71.0,99.0,99.0,3.0,0.16,-0.05,10.31,-0.02,0.01,0.0,19.2,29.45,-8.51,1776.23,1755695366.6254184,14:09:26
180489.0,71.0,99.0,99.0,3.0,0.16,-0.06,10.33,-0.03,0.01,0.01,19.21,29.46,-8.51,1776.45,1755695366.672809,14:09:26
180511.0,71.0,99.0,99.0,3.0,0.17,-0.06,10.32,-0.02,0.01,0.01,19.21,29.46,-8.51,1776.67,1755695366.7268317,14:09:26
180532.0,71.0,99.0,99.0,3.0,0.19,-0.04,10.31,-0.03,0.01,0.01,19.2,29.46,-8.52,1776.89,1755695366.829822,14:09:26
180554.0,71.0,99.0,99.0,3.0,0.16,-0.04,10.27,-0.03,0.01,0.0,19.21,29.47,-8.52,1777.12,1755695366.8767097,14:09:26
180575.0,71.0,99.0,99.0,3.0,0.18,-0.05,10.33,-0.02,0.01,0.01,19.21,29.47,-8.52,1777.33,1755695366.9277887,14:09:26
180596.0,71.0,99.0,99.0,3.0,0.17,-0.05,10.32,-0.02,0.01,0.0,19.21,29.48,-8.52,1777.55,1755695366.9774966,14:09:26
180618.0,71.0,99.0,99.0,3.0,0.17,-0.04,10.32,-0.03,0.01,0.0,19.21,29.48,-8.52,1777.78,1755695367.0308483,14:09:27
180639.0,71.0,99.0,99.0,3.0,0.2,-0.05,10.33,-0.02,0.01,0.0,19.2,29.48,-8.52,1777.99,1755695367.0783951,14:09:27
180661.0,71.0,99.0,99.0,3.0,0.16,-0.04,10.31,-0.03,0.01,0.0,19.21,29.49,-8.52,1778.22,1755695367.1258805,14:09:27
180683.0,71.0,99.0,99.0,3.0,0.16,-0.04,10.33,-0.03,0.01,0.0,19.2,29.49,-8.52,1778.45,1755695367.1735098,14:09:27
180705.0,71.0,99.0,99.0,3.0,0.18,-0.06,10.32,-0.03,0.01,0.0,19.21,29.49,-8.52,1778.67,1755695367.2233574,14:09:27
180726.0,71.0,99.0,99.0,3.0,0.21,-0.07,10.32,-0.02,0.01,0.01,19.22,29.5,-8.52,1778.89,1755695367.2729588,14:09:27
180747.0,71.0,99.0,99.0,3.0,0.18,-0.06,10.31,-0.03,0.01,0.0,19.21,29.5,-8.53,1779.11,1755695367.3320768,14:09:27
180769.0,71.0,99.0,99.0,3.0,0.16,-0.05,10.3,-0.03,0.01,0.01,19.19,29.51,-8.53,1779.34,1755695367.379499,14:09:27
180791.0,71.0,99.0,99.0,3.0,0.17,-0.05,10.31,-0.03,0.01,0.01,19.21,29.51,-8.53,1779.56,1755695367.431756,14:09:27
180813.0,71.0,99.0,99.0,3.0,0.17,-0.05,10.33,-0.03,0.01,0.01,19.2,29.51,-8.53,1779.79,1755695367.47973,14:09:27
180834.0,71.0,99.0,99.0,3.0,0.17,-0.06,10.32,-0.02,0.01,0.0,19.2,29.52,-8.53,1780.01,1755695367.5295541,14:09:27
180855.0,71.0,99.0,99.0,3.0,0.18,-0.05,10.3,-0.02,0.01,0.0,19.21,29.52,-8.53,1780.22,1755695367.5889268,14:09:27
180877.0,71.0,99.0,99.0,3.0,0.18,-0.04,10.3,-0.02,0.01,0.01,19.19,29.52,-8.53,1780.45,1755695367.6392252,14:09:27
180898.0,71.0,99.0,99.0,3.0,0.18,-0.06,10.28,-0.03,0.01,0.01,19.2,29.53,-8.53,1780.67,1755695367.6853473,14:09:27
180920.0,71.0,99.0,99.0,3.0,0.17,-0.04,10.31,-0.02,0.01,0.0,19.2,29.53,-8.54,1780.89,1755695367.7347276,14:09:27
180941.0,71.0,99.0,99.0,3.0,0.18,-0.05,10.27,-0.03,0.01,0.0,19.21,29.54,-8.54,1781.11,1755695367.7864678,14:09:27
180963.0,71.0,99.0,99.0,3.0,0.19,-0.05,10.29,-0.03,0.01,0.0,19.21,29.54,-8.54,1781.33,1755695367.838679,14:09:27
180984.0,71.0,99.0,99.0,3.0,0.17,-0.05,10.31,-0.02,0.01,0.0,19.2,29.54,-8.54,1781.55,1755695367.8856692,14:09:27
181005.0,71.0,99.0,99.0,3.0,0.18,-0.06,10.31,-0.03,0.01,0.0,19.2,29.55,-8.54,1781.77,1755695367.9396243,14:09:27
181027.0,71.0,99.0,99.0,3.0,0.15,-0.06,10.31,-0.03,0.01,0.0,19.21,29.55,-8.54,1781.99,1755695368.0679593,14:09:28
181048.0,71.0,99.0,99.0,3.0,0.16,-0.05,10.31,-0.03,0.01,0.0,19.18,29.55,-8.54,1782.21,1755695368.114512,14:09:28
181070.0,71.0,99.0,99.0,3.0,0.17,-0.05,10.34,-0.03,0.01,0.01,19.2,29.56,-8.54,1782.44,1755695368.1806898,14:09:28
181092.0,71.0,99.0,99.0,3.0,0.17,-0.06,10.33,-0.03,0.01,0.0,19.19,29.56,-8.54,1782.66,1755695368.237165,14:09:28
181114.0,71.0,99.0,99.0,3.0,0.16,-0.06,10.31,-0.03,0.01,0.0,19.2,29.57,-8.55,1782.89,1755695368.2855713,14:09:28
181135.0,71.0,99.0,99.0,3.0,0.17,-0.05,10.29,-0.02,0.01,0.0,19.2,29.57,-8.55,1783.11,1755695368.3337414,14:09:28
181156.0,71.0,99.0,99.0,3.0,0.18,-0.05,10.28,-0.02,0.01,0.0,19.19,29.57,-8.55,1783.32,1755695368.381706,14:09:28
181178.0,71.0,99.0,99.0,3.0,0.15,-0.04,10.32,-0.02,0.01,0.01,19.17,29.58,-8.55,1783.55,1755695368.4331286,14:09:28
181199.0,71.0,99.0,99.0,3.0,0.18,-0.04,10.3,-0.03,0.01,0.0,19.19,29.58,-8.55,1783.77,1755695368.4818861,14:09:28
181221.0,71.0,99.0,99.0,3.0,0.17,-0.05,10.34,-0.03,0.01,0.0,19.2,29.58,-8.55,1783.99,1755695368.5294473,14:09:28
181242.0,71.0,99.0,99.0,3.0,0.2,-0.05,10.3,-0.03,0.01,0.01,19.18,29.59,-8.55,1784.21,1755695368.5814197,14:09:28
181263.0,72.0,99.0,99.0,3.0,0.17,-0.05,10.3,-0.03,0.01,0.0,19.2,29.59,-8.55,1784.43,1755695368.6277564,14:09:28
181285.0,72.0,99.0,99.0,3.0,0.17,-0.05,10.29,-0.02,0.01,0.01,19.19,29.59,-8.55,1784.65,1755695368.6760707,14:09:28
181306.0,72.0,99.0,99.0,3.0,0.17,-0.05,10.31,-0.03,0.01,0.0,19.18,29.6,-8.55,1784.87,1755695368.7227936,14:09:28
181327.0,72.0,99.0,99.0,3.0,0.17,-0.05,10.3,-0.03,0.01,0.01,19.21,29.6,-8.56,1785.09,1755695368.7719412,14:09:28
181349.0,72.0,99.0,99.0,3.0,0.17,-0.05,10.3,-0.03,0.01,0.0,19.19,29.61,-8.56,1785.31,1755695368.8182907,14:09:28
181371.0,72.0,99.0,99.0,3.0,0.18,-0.05,10.32,-0.03,0.01,0.0,19.2,29.61,-8.56,1785.54,1755695368.8730721,14:09:28
181392.0,72.0,99.0,99.0,3.0,0.17,-0.05,10.33,-0.03,0.01,0.01,19.21,29.61,-8.56,1785.76,1755695368.9204156,14:09:28
181413.0,72.0,99.0,99.0,3.0,0.18,-0.05,10.32,-0.03,0.01,0.0,19.19,29.62,-8.56,1785.97,1755695368.9752905,14:09:28
181435.0,72.0,99.0,99.0,3.0,0.15,-0.06,10.29,-0.02,0.01,0.01,19.19,29.62,-8.56,1786.2,1755695369.0243466,14:09:29
181456.0,72.0,99.0,99.0,3.0,0.18,-0.05,10.29,-0.02,0.01,0.0,19.2,29.62,-8.56,1786.42,1755695369.0724802,14:09:29
181478.0,72.0,99.0,99.0,3.0,0.17,-0.03,10.32,-0.02,0.01,0.01,19.19,29.63,-8.56,1786.64,1755695369.1209388,14:09:29
181499.0,72.0,99.0,99.0,3.0,0.15,-0.04,10.33,-0.02,0.01,0.0,19.2,29.63,-8.56,1786.86,1755695369.1746457,14:09:29
181520.0,72.0,99.0,99.0,3.0,0.17,-0.05,10.33,-0.02,0.01,0.01,19.2,29.63,-8.56,1787.08,1755695369.2398431,14:09:29
181542.0,72.0,99.0,99.0,3.0,0.19,-0.05,10.3,-0.03,0.01,0.01,19.19,29.64,-8.57,1787.3,1755695369.2893152,14:09:29
181563.0,72.0,99.0,99.0,3.0,0.16,-0.05,10.32,-0.03,0.01,0.01,19.19,29.64,-8.57,1787.52,1755695369.3912745,14:09:29
181585.0,72.0,99.0,99.0,3.0,0.2,-0.05,10.34,-0.03,0.01,0.0,19.22,29.65,-8.57,1787.75,1755695369.4420795,14:09:29
181606.0,72.0,99.0,99.0,3.0,0.17,-0.04,10.31,-0.03,0.01,0.01,19.2,29.65,-8.57,1787.96,1755695369.5971062,14:09:29
181627.0,72.0,99.0,99.0,3.0,0.18,-0.05,10.29,-0.03,0.01,0.01,19.19,29.65,-8.57,1788.18,1755695369.6505075,14:09:29
181650.0,72.0,99.0,99.0,3.0,0.16,-0.05,10.34,-0.03,0.01,0.01,19.19,29.66,-8.57,1788.42,1755695369.6977408,14:09:29
181671.0,72.0,99.0,99.0,3.0,0.17,-0.06,10.27,-0.02,0.01,0.0,19.19,29.66,-8.57,1788.63,1755695369.7486873,14:09:29
181693.0,72.0,99.0,99.0,3.0,0.17,-0.05,10.31,-0.02,0.01,0.0,19.2,29.66,-8.57,1788.86,1755695369.798018,14:09:29
181714.0,72.0,99.0,99.0,3.0,0.16,-0.06,10.32,-0.02,0.01,0.0,19.18,29.67,-8.57,1789.08,1755695369.8487706,14:09:29
181735.0,72.0,99.0,99.0,3.0,0.16,-0.05,10.29,-0.03,0.01,0.0,19.19,29.67,-8.58,1789.29,1755695369.900408,14:09:29
181757.0,72.0,99.0,99.0,3.0,0.17,-0.05,10.29,-0.02,0.01,0.01,19.19,29.67,-8.58,1789.52,1755695369.9475327,14:09:29
181778.0,72.0,99.0,99.0,3.0,0.17,-0.04,10.3,-0.03,0.01,0.01,19.19,29.68,-8.58,1789.74,1755695370.003839,14:09:30
181799.0,72.0,99.0,99.0,3.0,0.18,-0.04,10.33,-0.02,0.01,0.0,19.19,29.68,-8.58,1789.95,1755695370.0528898,14:09:30
181820.0,72.0,99.0,99.0,3.0,0.18,-0.05,10.3,-0.02,0.01,0.0,19.19,29.69,-8.58,1790.17,1755695370.1029575,14:09:30
181842.0,72.0,99.0,99.0,3.0,0.17,-0.06,10.31,-0.03,0.01,0.01,19.2,29.69,-8.58,1790.4,1755695370.1569002,14:09:30
181863.0,72.0,99.0,99.0,3.0,0.17,-0.05,10.31,-0.02,0.01,0.01,19.2,29.69,-8.58,1790.61,1755695370.2074482,14:09:30
181885.0,72.0,99.0,99.0,3.0,0.16,-0.05,10.34,-0.02,0.01,0.0,19.18,29.7,-8.58,1790.84,1755695370.2562582,14:09:30
181906.0,72.0,99.0,99.0,3.0,0.18,-0.05,10.32,-0.02,0.01,0.0,19.21,29.7,-8.58,1791.06,1755695370.3081079,14:09:30
181927.0,72.0,99.0,99.0,3.0,0.18,-0.05,10.33,-0.02,0.01,0.0,19.21,29.7,-8.59,1791.27,1755695370.3584778,14:09:30
181949.0,72.0,99.0,99.0,3.0,0.2,-0.04,10.3,-0.03,0.01,0.0,19.2,29.71,-8.59,1791.5,1755695370.4166586,14:09:30
181970.0,72.0,99.0,99.0,3.0,0.19,-0.05,10.34,-0.02,0.01,0.0,19.2,29.71,-8.59,1791.72,1755695370.4670837,14:09:30
181992.0,72.0,99.0,99.0,3.0,0.16,-0.05,10.33,-0.03,0.01,0.0,19.18,29.72,-8.59,1791.94,1755695370.5185227,14:09:30
182014.0,72.0,99.0,99.0,3.0,0.17,-0.04,10.3,-0.03,0.01,0.0,19.18,29.72,-8.59,1792.17,1755695370.5678792,14:09:30
182035.0,72.0,99.0,99.0,3.0,0.18,-0.05,10.31,-0.03,0.01,0.0,19.19,29.72,-8.59,1792.39,1755695370.6170332,14:09:30
182057.0,72.0,99.0,99.0,3.0,0.17,-0.06,10.28,-0.02,0.01,0.0,19.18,29.73,-8.59,1792.61,1755695370.6668575,14:09:30
182078.0,72.0,99.0,99.0,3.0,0.19,-0.03,10.3,-0.03,0.01,0.01,19.2,29.73,-8.59,1792.83,1755695370.7191803,14:09:30
182101.0,72.0,99.0,99.0,3.0,0.16,-0.03,10.3,-0.02,0.01,0.01,19.18,29.74,-8.59,1793.07,1755695370.7704396,14:09:30
182123.0,72.0,99.0,99.0,3.0,0.16,-0.06,10.32,-0.03,0.01,0.0,19.19,29.74,-8.59,1793.29,1755695370.8227751,14:09:30
182145.0,72.0,99.0,99.0,3.0,0.16,-0.03,10.29,-0.03,0.01,0.01,19.19,29.74,-8.6,1793.52,1755695370.8763437,14:09:30
182166.0,72.0,99.0,99.0,3.0,0.17,-0.03,10.29,-0.03,0.01,0.01,19.18,29.75,-8.6,1793.74,1755695370.925607,14:09:30
182187.0,72.0,99.0,99.0,3.0,0.17,-0.04,10.3,-0.03,0.01,0.01,19.19,29.75,-8.6,1793.95,1755695370.9841428,14:09:30
182209.0,72.0,99.0,99.0,3.0,0.17,-0.04,10.31,-0.02,0.01,0.0,19.2,29.75,-8.6,1794.18,1755695371.0349126,14:09:31
182230.0,72.0,99.0,99.0,3.0,0.16,-0.05,10.33,-0.03,0.01,0.0,19.19,29.76,-8.6,1794.4,1755695371.0834608,14:09:31
182251.0,74.0,99.0,99.0,3.0,0.16,-0.05,10.31,-0.02,0.01,0.01,19.2,29.76,-8.6,1794.61,1755695371.1340191,14:09:31
182273.0,74.0,99.0,99.0,3.0,0.16,-0.04,10.3,-0.02,0.01,0.01,19.21,29.76,-8.6,1794.84,1755695371.1849575,14:09:31
182294.0,74.0,99.0,99.0,3.0,0.17,-0.03,10.32,-0.03,0.01,0.01,19.2,29.77,-8.6,1795.06,1755695371.2331314,14:09:31
182316.0,74.0,99.0,99.0,3.0,0.17,-0.05,10.31,-0.02,0.01,0.0,19.19,29.77,-8.6,1795.28,1755695371.2844205,14:09:31
182337.0,74.0,99.0,99.0,3.0,0.18,-0.05,10.3,-0.02,0.01,0.01,19.21,29.77,-8.6,1795.5,1755695371.333212,14:09:31
182358.0,74.0,99.0,99.0,3.0,0.19,-0.04,10.3,-0.02,0.01,0.0,19.2,29.78,-8.6,1795.72,1755695371.3943574,14:09:31
182380.0,74.0,99.0,99.0,3.0,0.17,-0.07,10.31,-0.03,0.01,0.01,19.2,29.78,-8.61,1795.94,1755695371.4453678,14:09:31
182401.0,74.0,99.0,99.0,3.0,0.17,-0.05,10.31,-0.02,0.01,0.0,19.19,29.79,-8.61,1796.16,1755695371.4945264,14:09:31
182423.0,74.0,99.0,99.0,3.0,0.16,-0.05,10.33,-0.02,0.01,0.01,19.19,29.79,-8.61,1796.39,1755695371.54319,14:09:31
182444.0,74.0,99.0,99.0,3.0,0.17,-0.05,10.31,-0.02,0.01,0.0,19.19,29.79,-8.61,1796.6,1755695371.5911307,14:09:31
182465.0,74.0,99.0,99.0,3.0,0.17,-0.04,10.3,-0.03,0.01,0.01,19.18,29.8,-8.61,1796.82,1755695371.642949,14:09:31
182487.0,74.0,99.0,99.0,3.0,0.16,-0.03,10.31,-0.02,0.01,0.0,19.17,29.8,-8.61,1797.05,1755695371.6924577,14:09:31
182508.0,74.0,99.0,99.0,3.0,0.16,-0.05,10.3,-0.03,0.01,0.0,19.18,29.8,-8.61,1797.26,1755695371.7559595,14:09:31
182530.0,74.0,99.0,99.0,3.0,0.16,-0.04,10.31,-0.02,0.01,0.01,19.18,29.81,-8.61,1797.49,1755695371.805875,14:09:31
182551.0,74.0,99.0,99.0,3.0,0.15,-0.05,10.31,-0.03,0.01,0.0,19.19,29.81,-8.61,1797.71,1755695371.8615599,14:09:31
182573.0,74.0,99.0,99.0,3.0,0.16,-0.04,10.31,-0.03,0.01,0.01,19.19,29.81,-8.62,1797.93,1755695371.9130201,14:09:31
182594.0,74.0,99.0,99.0,3.0,0.18,-0.04,10.33,-0.03,0.01,0.0,19.19,29.82,-8.62,1798.15,1755695371.9615035,14:09:31
182615.0,74.0,99.0,99.0,3.0,0.18,-0.05,10.33,-0.03,0.01,0.01,19.18,29.82,-8.62,1798.37,1755695372.0095484,14:09:32
182637.0,74.0,99.0,99.0,3.0,0.16,-0.06,10.31,-0.02,0.01,0.0,19.19,29.82,-8.62,1798.59,1755695372.0615113,14:09:32
182658.0,74.0,99.0,99.0,3.0,0.17,-0.03,10.3,-0.02,0.01,0.0,19.2,29.83,-8.62,1798.81,1755695372.1116445,14:09:32
182681.0,74.0,99.0,99.0,3.0,0.17,-0.04,10.3,-0.02,0.01,0.01,19.2,29.83,-8.62,1799.05,1755695372.1827555,14:09:32
182702.0,74.0,99.0,99.0,3.0,0.18,-0.04,10.33,-0.03,0.01,0.01,19.17,29.84,-8.62,1799.26,1755695372.2320151,14:09:32
182723.0,74.0,99.0,99.0,3.0,0.18,-0.05,10.3,-0.03,0.01,0.01,19.19,29.84,-8.62,1799.48,1755695372.2826757,14:09:32
182745.0,74.0,99.0,99.0,3.0,0.16,-0.06,10.31,-0.03,0.01,0.0,19.19,29.84,-8.62,1799.71,1755695372.330163,14:09:32
182766.0,74.0,99.0,99.0,3.0,0.16,-0.05,10.3,-0.03,0.01,0.01,19.18,29.85,-8.62,1799.92,1755695372.3802004,14:09:32
182787.0,74.0,99.0,99.0,3.0,0.16,-0.04,10.31,-0.03,0.01,0.0,19.18,29.85,-8.63,1800.14,1755695372.4647505,14:09:32
182808.0,74.0,99.0,99.0,3.0,0.17,-0.04,10.31,-0.03,0.01,0.01,19.19,29.85,-8.63,1800.36,1755695372.5678945,14:09:32
182829.0,74.0,99.0,99.0,3.0,0.16,-0.04,10.31,-0.03,0.01,0.01,19.2,29.86,-8.63,1800.57,1755695372.6299038,14:09:32
182851.0,74.0,99.0,99.0,3.0,0.19,-0.05,10.3,-0.03,0.01,0.0,19.19,29.86,-8.63,1800.8,1755695372.6824327,14:09:32
182872.0,74.0,99.0,99.0,3.0,0.18,-0.04,10.3,-0.02,0.01,0.01,19.19,29.86,-8.63,1801.02,1755695372.7311711,14:09:32
182893.0,74.0,99.0,99.0,3.0,0.15,-0.06,10.29,-0.02,0.01,0.01,19.18,29.87,-8.63,1801.23,1755695372.7795742,14:09:32
182915.0,74.0,99.0,99.0,3.0,0.17,-0.05,10.32,-0.03,0.01,0.0,19.19,29.87,-8.63,1801.46,1755695372.8304443,14:09:32
182936.0,74.0,99.0,99.0,3.0,0.17,-0.05,10.31,-0.03,0.01,0.01,19.19,29.88,-8.63,1801.68,1755695372.8799257,14:09:32
182958.0,74.0,99.0,99.0,3.0,0.17,-0.05,10.31,-0.03,0.01,0.01,19.19,29.88,-8.63,1801.9,1755695372.9270136,14:09:32
182979.0,74.0,99.0,99.0,3.0,0.17,-0.05,10.27,-0.03,0.01,0.01,19.19,29.88,-8.63,1802.12,1755695373.0795555,14:09:33
183000.0,74.0,99.0,99.0,3.0,0.17,-0.05,10.32,-0.03,0.01,0.01,19.18,29.89,-8.64,1802.34,1755695373.1269348,14:09:33
183022.0,74.0,99.0,99.0,3.0,0.16,-0.04,10.33,-0.02,0.01,0.0,19.2,29.89,-8.64,1802.56,1755695373.175654,14:09:33
183044.0,74.0,99.0,99.0,3.0,0.17,-0.05,10.32,-0.03,0.01,0.01,19.19,29.89,-8.64,1802.79,1755695373.223097,14:09:33
183066.0,74.0,99.0,99.0,3.0,0.18,-0.04,10.3,-0.02,0.01,0.0,19.17,29.9,-8.64,1803.02,1755695373.2705588,14:09:33
183087.0,0.0,0.0,0.0,0.0,0.17,-0.06,10.31,-0.02,0.01,0.0,19.19,29.9,-8.64,1803.23,1755695373.3176756,14:09:33
183128.0,74.0,99.0,99.0,3.0,0.18,-0.05,10.32,-0.02,0.01,0.0,19.19,29.91,-8.64,1803.66,1755695373.3662996,14:09:33
183149.0,74.0,99.0,99.0,3.0,0.17,-0.05,10.31,-0.03,0.01,0.01,19.18,29.91,-8.64,1803.87,1755695373.4206254,14:09:33
183171.0,74.0,99.0,99.0,3.0,0.16,-0.05,10.34,-0.02,0.01,0.0,19.2,29.92,-8.64,1804.1,1755695373.4687786,14:09:33
183192.0,74.0,99.0,99.0,3.0,0.18,-0.05,10.3,-0.03,0.01,0.01,19.2,29.92,-8.65,1804.32,1755695373.5194266,14:09:33
183214.0,74.0,99.0,99.0,3.0,0.15,-0.06,10.32,-0.03,0.01,0.0,19.19,29.92,-8.65,1804.54,1755695373.571713,14:09:33
183236.0,0.0,0.0,0.0,0.0,0.18,-0.06,10.3,-0.02,0.01,0.0,19.19,29.93,-8.65,1804.77,1755695373.6192713,14:09:33
183277.0,74.0,99.0,99.0,3.0,0.15,-0.05,10.3,-0.03,0.01,0.01,19.19,29.93,-8.65,1805.19,1755695373.6692643,14:09:33
183298.0,74.0,99.0,99.0,3.0,0.17,-0.05,10.32,-0.03,0.01,0.0,19.19,29.94,-8.65,1805.41,1755695373.7180083,14:09:33
183320.0,74.0,99.0,99.0,3.0,0.16,-0.05,10.31,-0.03,0.01,0.0,19.19,29.94,-8.65,1805.64,1755695373.767246,14:09:33
183341.0,74.0,99.0,99.0,3.0,0.17,-0.06,10.28,-0.02,0.01,0.01,19.17,29.94,-8.65,1805.85,1755695373.8301923,14:09:33
183362.0,74.0,99.0,99.0,3.0,0.17,-0.07,10.32,-0.02,0.01,0.0,19.2,29.95,-8.65,1806.07,1755695373.9067667,14:09:33
183384.0,74.0,99.0,99.0,3.0,0.19,-0.05,10.31,-0.03,0.01,0.01,19.18,29.95,-8.66,1806.3,1755695373.9563718,14:09:33
183405.0,74.0,99.0,99.0,3.0,0.16,-0.06,10.33,-0.02,0.01,0.0,19.19,29.95,-8.66,1806.51,1755695374.005852,14:09:34
183427.0,74.0,99.0,99.0,3.0,0.18,-0.04,10.32,-0.03,0.01,0.0,19.18,29.96,-8.66,1806.74,1755695374.0540621,14:09:34
183448.0,74.0,99.0,99.0,3.0,0.19,-0.04,10.3,-0.03,0.01,0.0,19.18,29.96,-8.66,1806.96,1755695374.1033375,14:09:34
183469.0,74.0,99.0,99.0,3.0,0.17,-0.05,10.3,-0.03,0.01,0.01,19.17,29.97,-8.66,1807.17,1755695374.1513262,14:09:34
183491.0,74.0,99.0,99.0,3.0,0.15,-0.04,10.29,-0.02,0.01,0.0,19.17,29.97,-8.66,1807.4,1755695374.199714,14:09:34
183512.0,74.0,99.0,99.0,3.0,0.15,-0.03,10.3,-0.02,0.01,0.01,19.17,29.97,-8.66,1807.62,1755695374.2502728,14:09:34
183534.0,74.0,99.0,99.0,3.0,0.17,-0.05,10.28,-0.03,0.01,0.01,19.2,29.98,-8.66,1807.84,1755695374.3025973,14:09:34
183556.0,74.0,99.0,99.0,3.0,0.17,-0.07,10.31,-0.02,0.01,0.0,19.2,29.98,-8.66,1808.07,1755695374.3540192,14:09:34
183578.0,74.0,99.0,99.0,3.0,0.18,-0.05,10.29,-0.03,0.01,0.01,19.18,29.98,-8.67,1808.3,1755695374.4062283,14:09:34
183599.0,74.0,99.0,99.0,3.0,0.18,-0.08,10.28,-0.03,0.01,0.0,19.19,29.99,-8.67,1808.51,1755695374.4553494,14:09:34
183620.0,74.0,99.0,99.0,3.0,0.15,-0.06,10.33,-0.02,0.01,0.0,19.19,29.99,-8.67,1808.73,1755695374.506936,14:09:34
183641.0,74.0,99.0,99.0,3.0,0.17,-0.05,10.3,-0.02,0.01,0.0,19.17,29.99,-8.67,1808.94,1755695374.555067,14:09:34
183662.0,74.0,99.0,99.0,3.0,0.17,-0.07,10.32,-0.03,0.01,0.0,19.18,30.0,-8.67,1809.16,1755695374.6026998,14:09:34
183684.0,74.0,99.0,99.0,3.0,0.18,-0.04,10.32,-0.03,0.01,0.01,19.18,30.0,-8.67,1809.39,1755695374.7216766,14:09:34
183705.0,74.0,99.0,99.0,3.0,0.16,-0.07,10.3,-0.03,0.01,0.01,19.2,30.01,-8.67,1809.6,1755695374.7766283,14:09:34
183727.0,74.0,99.0,99.0,3.0,0.17,-0.05,10.31,-0.02,0.01,0.0,19.17,30.01,-8.67,1809.83,1755695374.828068,14:09:34
183748.0,74.0,99.0,99.0,3.0,0.17,-0.05,10.32,-0.03,0.01,0.0,19.18,30.01,-8.68,1810.05,1755695374.8752756,14:09:34
183770.0,74.0,99.0,99.0,3.0,0.17,-0.04,10.3,-0.03,0.01,0.0,19.18,30.02,-8.68,1810.28,1755695374.9257782,14:09:34
183791.0,74.0,99.0,99.0,3.0,0.18,-0.06,10.3,-0.03,0.01,0.01,19.18,30.02,-8.68,1810.49,1755695374.9751089,14:09:34
183812.0,74.0,99.0,99.0,3.0,0.17,-0.06,10.34,-0.02,0.01,0.01,19.18,30.02,-8.68,1810.71,1755695375.0288105,14:09:35
183835.0,74.0,99.0,99.0,3.0,0.16,-0.05,10.34,-0.03,0.01,0.0,19.19,30.03,-8.68,1810.95,1755695375.0900345,14:09:35
183856.0,74.0,99.0,99.0,3.0,0.17,-0.02,10.32,-0.03,0.01,0.0,19.16,30.03,-8.68,1811.16,1755695375.148427,14:09:35
183878.0,74.0,99.0,99.0,3.0,0.18,-0.05,10.31,-0.02,0.01,0.01,19.16,30.03,-8.68,1811.39,1755695375.1966236,14:09:35
183899.0,74.0,99.0,99.0,3.0,0.18,-0.04,10.33,-0.03,0.01,0.01,19.17,30.04,-8.68,1811.61,1755695375.2450335,14:09:35
183920.0,74.0,99.0,99.0,3.0,0.17,-0.04,10.31,-0.03,0.01,0.01,19.19,30.04,-8.68,1811.82,1755695375.3024418,14:09:35
183942.0,74.0,99.0,99.0,3.0,0.19,-0.04,10.3,-0.03,0.01,0.01,19.18,30.05,-8.68,1812.05,1755695375.354343,14:09:35
183963.0,74.0,99.0,99.0,3.0,0.18,-0.03,10.3,-0.02,0.01,0.0,19.17,30.05,-8.68,1812.27,1755695375.406448,14:09:35
183985.0,74.0,99.0,99.0,3.0,0.15,-0.05,10.33,-0.02,0.01,0.0,19.18,30.05,-8.69,1812.49,1755695375.4596488,14:09:35
184006.0,74.0,99.0,99.0,3.0,0.17,-0.05,10.33,-0.03,0.01,0.0,19.17,30.06,-8.69,1812.71,1755695375.5117757,14:09:35
184027.0,74.0,100.0,99.0,3.0,0.18,-0.06,10.31,-0.03,0.01,0.0,19.17,30.06,-8.69,1812.93,1755695375.562277,14:09:35
184049.0,74.0,100.0,99.0,3.0,0.15,-0.05,10.3,-0.03,0.01,0.01,19.17,30.06,-8.69,1813.15,1755695375.6119792,14:09:35
184070.0,74.0,100.0,99.0,3.0,0.17,-0.05,10.3,-0.03,0.01,0.01,19.17,30.07,-8.69,1813.37,1755695375.6616378,14:09:35
184092.0,74.0,100.0,99.0,3.0,0.18,-0.05,10.32,-0.02,0.01,0.0,19.18,30.07,-8.69,1813.6,1755695375.712806,14:09:35
184113.0,74.0,100.0,99.0,3.0,0.16,-0.04,10.32,-0.02,0.01,0.01,19.18,30.07,-8.69,1813.81,1755695375.772496,14:09:35
184135.0,74.0,100.0,99.0,3.0,0.16,-0.06,10.32,-0.03,0.01,0.0,19.18,30.08,-8.69,1814.04,1755695375.824009,14:09:35
184157.0,74.0,100.0,99.0,3.0,0.18,-0.04,10.29,-0.03,0.01,0.0,19.16,30.08,-8.69,1814.27,1755695375.8757818,14:09:35
184178.0,74.0,100.0,99.0,3.0,0.19,-0.04,10.32,-0.03,0.01,0.0,19.17,30.09,-8.7,1814.48,1755695375.932734,14:09:35
184200.0,74.0,100.0,99.0,3.0,0.18,-0.05,10.29,-0.03,0.01,0.01,19.17,30.09,-8.7,1814.71,1755695375.9847226,14:09:35
184221.0,74.0,100.0,99.0,3.0,0.17,-0.05,10.31,-0.03,0.01,0.01,19.17,30.09,-8.7,1814.93,1755695376.0356057,14:09:36
184243.0,74.0,100.0,99.0,3.0,0.17,-0.04,10.33,-0.03,0.01,0.0,19.18,30.1,-8.7,1815.15,1755695376.0855923,14:09:36
184264.0,74.0,100.0,99.0,3.0,0.16,-0.05,10.31,-0.03,0.01,0.01,19.18,30.1,-8.7,1815.37,1755695376.1468394,14:09:36
184286.0,74.0,100.0,99.0,3.0,0.16,-0.05,10.33,-0.03,0.01,0.0,19.21,30.1,-8.7,1815.6,1755695376.1997244,14:09:36
184307.0,73.0,100.0,99.0,3.0,0.18,-0.05,10.3,-0.02,0.01,0.0,19.17,30.11,-8.7,1815.81,1755695376.2479923,14:09:36
184328.0,73.0,100.0,99.0,3.0,0.16,-0.03,10.31,-0.03,0.01,0.01,19.19,30.11,-8.7,1816.03,1755695376.2987225,14:09:36
184350.0,73.0,100.0,99.0,3.0,0.17,-0.05,10.32,-0.03,0.01,0.0,19.2,30.12,-8.7,1816.26,1755695376.3516955,14:09:36
184371.0,73.0,100.0,99.0,3.0,0.18,-0.04,10.31,-0.03,0.01,0.0,19.19,30.12,-8.7,1816.47,1755695376.3992417,14:09:36
184393.0,73.0,100.0,99.0,3.0,0.19,-0.05,10.3,-0.02,0.01,0.0,19.16,30.12,-8.71,1816.7,1755695376.5906527,14:09:36
184414.0,73.0,100.0,99.0,3.0,0.17,-0.06,10.31,-0.02,0.01,0.0,19.18,30.13,-8.71,1816.92,1755695376.6390443,14:09:36
184436.0,74.0,100.0,99.0,3.0,0.15,-0.05,10.3,-0.02,0.01,0.01,19.18,30.13,-8.71,1817.14,1755695376.6882222,14:09:36
184457.0,73.0,100.0,99.0,3.0,0.17,-0.04,10.3,-0.03,0.01,0.0,19.17,30.13,-8.71,1817.36,1755695376.7401884,14:09:36
184479.0,73.0,100.0,99.0,3.0,0.17,-0.06,10.31,-0.02,0.01,0.0,19.19,30.14,-8.71,1817.59,1755695376.7889442,14:09:36
184501.0,73.0,100.0,99.0,3.0,0.18,-0.05,10.33,-0.02,0.01,0.0,19.2,30.14,-8.71,1817.81,1755695376.8427022,14:09:36
184522.0,73.0,100.0,99.0,3.0,0.17,-0.02,10.31,-0.02,0.01,0.0,19.2,30.14,-8.71,1818.03,1755695376.8918056,14:09:36
184544.0,73.0,100.0,99.0,3.0,0.17,-0.04,10.33,-0.02,0.01,0.0,19.19,30.15,-8.71,1818.26,1755695376.9507127,14:09:36
184565.0,73.0,100.0,99.0,3.0,0.18,-0.05,10.32,-0.02,0.01,0.0,19.19,30.15,-8.71,1818.47,1755695377.0032566,14:09:37
184586.0,73.0,100.0,99.0,3.0,0.17,-0.06,10.32,-0.03,0.01,0.01,19.19,30.16,-8.71,1818.69,1755695377.0559747,14:09:37
184608.0,73.0,100.0,99.0,3.0,0.16,-0.04,10.29,-0.03,0.01,0.01,19.19,30.16,-8.72,1818.92,1755695377.1053936,14:09:37
184629.0,73.0,100.0,99.0,3.0,0.16,-0.06,10.32,-0.03,0.01,0.01,19.19,30.16,-8.72,1819.13,1755695377.1632426,14:09:37
184651.0,73.0,100.0,99.0,3.0,0.17,-0.04,10.31,-0.02,0.01,0.0,19.19,30.17,-8.72,1819.36,1755695377.212556,14:09:37
184672.0,73.0,100.0,99.0,3.0,0.17,-0.05,10.31,-0.03,0.01,0.0,19.19,30.17,-8.72,1819.58,1755695377.2710187,14:09:37
184694.0,73.0,100.0,99.0,3.0,0.17,-0.04,10.31,-0.03,0.01,0.0,19.19,30.17,-8.72,1819.8,1755695377.3196664,14:09:37
184715.0,73.0,100.0,99.0,3.0,0.16,-0.05,10.3,-0.03,0.01,0.01,19.19,30.18,-8.72,1820.02,1755695377.378678,14:09:37
184736.0,73.0,100.0,99.0,3.0,0.16,-0.07,10.33,-0.03,0.01,0.0,19.2,30.18,-8.72,1820.24,1755695377.4274821,14:09:37
184758.0,73.0,100.0,99.0,3.0,0.18,-0.04,10.3,-0.02,0.01,0.0,19.19,30.18,-8.72,1820.46,1755695377.480239,14:09:37
184779.0,73.0,100.0,99.0,3.0,0.17,-0.05,10.3,-0.03,0.01,0.01,19.19,30.19,-8.72,1820.68,1755695377.5319464,14:09:37
184801.0,73.0,100.0,99.0,3.0,0.17,-0.05,10.31,-0.03,0.01,0.01,19.19,30.19,-8.73,1820.91,1755695377.591157,14:09:37
184822.0,73.0,100.0,99.0,3.0,0.19,-0.06,10.3,-0.02,0.01,0.01,19.19,30.2,-8.73,1821.12,1755695377.6473331,14:09:37
184843.0,73.0,100.0,99.0,3.0,0.17,-0.05,10.32,-0.03,0.01,0.0,19.2,30.2,-8.73,1821.34,1755695377.7009082,14:09:37
184865.0,73.0,100.0,99.0,3.0,0.18,-0.06,10.29,-0.03,0.01,0.0,19.19,30.2,-8.73,1821.57,1755695377.7507925,14:09:37
184887.0,73.0,100.0,99.0,3.0,0.16,-0.05,10.3,-0.03,0.01,0.0,19.2,30.21,-8.73,1821.79,1755695377.8030546,14:09:37
184909.0,73.0,100.0,99.0,3.0,0.16,-0.05,10.32,-0.03,0.01,0.01,19.19,30.21,-8.73,1822.02,1755695377.8527436,14:09:37
184930.0,73.0,100.0,99.0,3.0,0.18,-0.04,10.31,-0.02,0.01,0.0,19.18,30.21,-8.73,1822.24,1755695377.903056,14:09:37
184951.0,73.0,100.0,99.0,3.0,0.16,-0.04,10.32,-0.03,0.01,0.01,19.19,30.22,-8.73,1822.45,1755695377.956619,14:09:37
184973.0,73.0,100.0,99.0,3.0,0.18,-0.05,10.3,-0.02,0.01,0.01,19.19,30.22,-8.73,1822.68,1755695378.0043886,14:09:38
184994.0,73.0,100.0,99.0,3.0,0.19,-0.05,10.3,-0.02,0.01,0.0,19.17,30.23,-8.73,1822.9,1755695378.0505676,14:09:38
185017.0,73.0,100.0,99.0,3.0,0.19,-0.05,10.31,-0.03,0.01,0.01,19.19,30.23,-8.74,1823.13,1755695378.1034386,14:09:38
185038.0,73.0,100.0,99.0,3.0,0.18,-0.04,10.29,-0.03,0.01,0.01,19.18,30.23,-8.74,1823.35,1755695378.153808,14:09:38
185060.0,73.0,100.0,99.0,3.0,0.15,-0.07,10.29,-0.02,0.01,0.0,19.2,30.24,-8.74,1823.58,1755695378.2056115,14:09:38
185081.0,73.0,100.0,99.0,3.0,0.15,-0.05,10.3,-0.03,0.01,0.0,19.18,30.24,-8.74,1823.79,1755695378.2564793,14:09:38
185102.0,72.0,100.0,99.0,3.0,0.16,-0.04,10.3,-0.03,0.01,0.01,19.19,30.24,-8.74,1824.01,1755695378.323871,14:09:38
185124.0,72.0,100.0,99.0,3.0,0.17,-0.03,10.3,-0.03,0.01,0.0,19.17,30.25,-8.74,1824.24,1755695378.3714638,14:09:38
185145.0,72.0,100.0,99.0,3.0,0.16,-0.05,10.31,-0.03,0.01,0.0,19.18,30.25,-8.74,1824.45,1755695378.4202714,14:09:38
185167.0,72.0,100.0,99.0,3.0,0.17,-0.06,10.3,-0.02,0.01,0.01,19.19,30.25,-8.74,1824.68,1755695378.4696968,14:09:38
185188.0,72.0,100.0,99.0,3.0,0.16,-0.05,10.31,-0.03,0.01,0.0,19.18,30.26,-8.74,1824.9,1755695378.5212162,14:09:38
185210.0,72.0,100.0,99.0,3.0,0.16,-0.04,10.3,-0.03,0.01,0.0,19.19,30.26,-8.75,1825.12,1755695378.571183,14:09:38
185231.0,72.0,100.0,99.0,3.0,0.17,-0.04,10.3,-0.02,0.01,0.0,19.18,30.26,-8.75,1825.34,1755695378.6234765,14:09:38
185252.0,72.0,100.0,99.0,3.0,0.15,-0.05,10.3,-0.03,0.01,0.0,19.19,30.27,-8.75,1825.55,1755695378.676047,14:09:38
185274.0,72.0,100.0,99.0,3.0,0.18,-0.05,10.33,-0.02,0.01,0.0,19.16,30.27,-8.75,1825.78,1755695378.72841,14:09:38
185295.0,72.0,100.0,99.0,3.0,0.18,-0.04,10.3,-0.02,0.01,0.01,19.17,30.28,-8.75,1826.0,1755695378.7794456,14:09:38
185317.0,72.0,100.0,99.0,3.0,0.17,-0.04,10.3,-0.02,0.01,0.0,19.17,30.28,-8.75,1826.22,1755695378.926199,14:09:38
185338.0,72.0,100.0,99.0,3.0,0.18,-0.06,10.3,-0.03,0.01,0.0,19.18,30.28,-8.75,1826.44,1755695378.9742084,14:09:38
185360.0,72.0,100.0,99.0,3.0,0.18,-0.08,10.3,-0.03,0.01,0.01,19.19,30.29,-8.75,1826.67,1755695379.027016,14:09:39
185381.0,72.0,100.0,99.0,3.0,0.17,-0.06,10.28,-0.02,0.01,0.01,19.19,30.29,-8.75,1826.88,1755695379.078307,14:09:39
185402.0,72.0,100.0,99.0,3.0,0.19,-0.05,10.3,-0.02,0.01,0.01,19.17,30.29,-8.76,1827.1,1755695379.1347632,14:09:39
185424.0,72.0,100.0,99.0,3.0,0.16,-0.06,10.3,-0.03,0.01,0.0,19.17,30.3,-8.76,1827.33,1755695379.1855924,14:09:39
185445.0,72.0,100.0,99.0,3.0,0.15,-0.03,10.3,-0.02,0.01,0.0,19.17,30.3,-8.76,1827.54,1755695379.2444868,14:09:39
185467.0,72.0,100.0,99.0,3.0,0.2,-0.04,10.3,-0.02,0.01,0.0,19.17,30.31,-8.76,1827.77,1755695379.2941155,14:09:39
185488.0,72.0,100.0,99.0,3.0,0.17,-0.04,10.3,-0.03,0.01,0.0,19.17,30.31,-8.76,1827.99,1755695379.341746,14:09:39
185509.0,72.0,100.0,99.0,3.0,0.17,-0.05,10.3,-0.03,0.01,0.01,19.16,30.31,-8.76,1828.2,1755695379.402842,14:09:39
185531.0,72.0,100.0,99.0,3.0,0.18,-0.04,10.31,-0.03,0.01,0.01,19.19,30.32,-8.76,1828.43,1755695379.4606984,14:09:39
185552.0,72.0,100.0,99.0,3.0,0.17,-0.05,10.32,-0.03,0.01,0.0,19.18,30.32,-8.76,1828.65,1755695379.5121763,14:09:39
185574.0,72.0,100.0,99.0,3.0,0.18,-0.05,10.29,-0.03,0.01,0.0,19.17,30.32,-8.76,1828.87,1755695379.565075,14:09:39
185595.0,72.0,100.0,99.0,3.0,0.17,-0.06,10.28,-0.03,0.01,0.0,19.19,30.33,-8.76,1829.09,1755695379.6143365,14:09:39
185616.0,72.0,100.0,99.0,3.0,0.16,-0.05,10.3,-0.03,0.01,0.0,19.18,30.33,-8.77,1829.3,1755695379.6773033,14:09:39
185638.0,72.0,100.0,99.0,3.0,0.15,-0.05,10.34,-0.03,0.01,0.0,19.18,30.33,-8.77,1829.53,1755695379.732076,14:09:39
185659.0,72.0,100.0,99.0,3.0,0.18,-0.07,10.33,-0.03,0.01,0.0,19.18,30.34,-8.77,1829.75,1755695379.782162,14:09:39
185681.0,72.0,100.0,99.0,3.0,0.18,-0.05,10.3,-0.02,0.01,0.01,19.17,30.34,-8.77,1829.98,1755695379.831203,14:09:39
185702.0,72.0,100.0,99.0,3.0,0.17,-0.05,10.31,-0.03,0.01,0.01,19.19,30.35,-8.77,1830.19,1755695379.8924124,14:09:39
185724.0,72.0,100.0,99.0,3.0,0.18,-0.05,10.31,-0.03,0.01,0.01,19.17,30.35,-8.77,1830.42,1755695379.94664,14:09:39
185745.0,72.0,100.0,99.0,3.0,0.17,-0.05,10.31,-0.02,0.01,0.0,19.17,30.35,-8.77,1830.64,1755695379.9987237,14:09:39
185766.0,72.0,100.0,99.0,3.0,0.17,-0.06,10.31,-0.02,0.01,0.0,19.17,30.36,-8.77,1830.85,1755695380.0495436,14:09:40
185788.0,72.0,100.0,99.0,3.0,0.16,-0.05,10.31,-0.02,0.01,0.0,19.17,30.36,-8.77,1831.08,1755695380.1028032,14:09:40
185810.0,72.0,100.0,99.0,3.0,0.18,-0.05,10.32,-0.02,0.01,0.0,19.17,30.36,-8.78,1831.31,1755695380.1504586,14:09:40
185832.0,72.0,100.0,99.0,3.0,0.17,-0.03,10.31,-0.02,0.01,0.0,19.19,30.37,-8.78,1831.53,1755695380.2082424,14:09:40
185853.0,72.0,100.0,99.0,3.0,0.16,-0.05,10.32,-0.03,0.01,0.0,19.17,30.37,-8.78,1831.75,1755695380.2585232,14:09:40
185875.0,72.0,100.0,99.0,3.0,0.16,-0.06,10.28,-0.03,0.01,0.0,19.18,30.38,-8.78,1831.98,1755695380.3091128,14:09:40
185896.0,72.0,100.0,99.0,3.0,0.17,-0.05,10.3,-0.03,0.01,0.0,19.17,30.38,-8.78,1832.19,1755695380.359729,14:09:40
185918.0,72.0,100.0,99.0,3.0,0.17,-0.05,10.3,-0.02,0.01,0.01,19.18,30.38,-8.78,1832.42,1755695380.4087536,14:09:40
185939.0,72.0,100.0,99.0,3.0,0.19,-0.05,10.29,-0.03,0.01,0.0,19.17,30.39,-8.78,1832.63,1755695380.4674447,14:09:40
185960.0,72.0,100.0,99.0,3.0,0.17,-0.05,10.3,-0.02,0.01,0.01,19.16,30.39,-8.78,1832.85,1755695380.5180597,14:09:40
185982.0,72.0,100.0,99.0,3.0,0.17,-0.03,10.32,-0.03,0.01,0.0,19.17,30.39,-8.78,1833.08,1755695380.5666769,14:09:40
186003.0,72.0,100.0,99.0,3.0,0.18,-0.06,10.32,-0.02,0.01,0.0,19.17,30.4,-8.78,1833.29,1755695380.6153674,14:09:40
186025.0,72.0,100.0,99.0,3.0,0.17,-0.04,10.3,-0.03,0.01,0.0,19.17,30.4,-8.79,1833.52,1755695380.663673,14:09:40
186046.0,72.0,100.0,99.0,3.0,0.17,-0.05,10.28,-0.03,0.01,0.0,19.18,30.4,-8.79,1833.74,1755695380.7480094,14:09:40
186067.0,72.0,100.0,99.0,3.0,0.18,-0.07,10.3,-0.03,0.01,0.0,19.17,30.41,-8.79,1833.95,1755695380.8684,14:09:40
186089.0,72.0,100.0,99.0,3.0,0.17,-0.07,10.31,-0.03,0.01,0.0,19.18,30.41,-8.79,1834.18,1755695380.918489,14:09:40
186110.0,72.0,100.0,99.0,3.0,0.16,-0.06,10.3,-0.03,0.01,0.01,19.17,30.42,-8.79,1834.4,1755695380.967525,14:09:40
186132.0,72.0,100.0,99.0,3.0,0.16,-0.04,10.32,-0.02,0.01,0.0,19.17,30.42,-8.79,1834.62,1755695381.0181687,14:09:41
186153.0,72.0,100.0,99.0,3.0,0.17,-0.05,10.33,-0.03,0.01,0.0,19.15,30.42,-8.79,1834.84,1755695381.0705626,14:09:41
186175.0,72.0,100.0,99.0,3.0,0.17,-0.05,10.3,-0.02,0.01,0.0,19.19,30.43,-8.79,1835.07,1755695381.1214526,14:09:41
186196.0,72.0,100.0,99.0,3.0,0.17,-0.05,10.35,-0.02,0.01,0.0,19.18,30.43,-8.8,1835.28,1755695381.1742566,14:09:41
186218.0,72.0,100.0,99.0,3.0,0.16,-0.05,10.3,-0.02,0.01,0.0,19.18,30.43,-8.8,1835.51,1755695381.2235973,14:09:41
186240.0,72.0,100.0,99.0,3.0,0.17,-0.06,10.27,-0.03,0.01,0.0,19.17,30.44,-8.8,1835.74,1755695381.2762845,14:09:41
186261.0,72.0,100.0,99.0,3.0,0.15,-0.05,10.3,-0.02,0.01,0.0,19.18,30.44,-8.8,1835.95,1755695381.3255064,14:09:41
186284.0,72.0,100.0,99.0,3.0,0.16,-0.04,10.3,-0.03,0.01,0.01,19.17,30.44,-8.8,1836.19,1755695381.3738983,14:09:41
186305.0,72.0,100.0,99.0,3.0,0.15,-0.03,10.31,-0.03,0.01,0.01,19.18,30.45,-8.8,1836.41,1755695381.4226692,14:09:41
186327.0,72.0,100.0,99.0,3.0,0.17,-0.05,10.33,-0.02,0.01,0.0,19.17,30.45,-8.8,1836.63,1755695381.474057,14:09:41
186348.0,72.0,100.0,99.0,3.0,0.2,-0.07,10.32,-0.02,0.01,0.0,19.19,30.46,-8.8,1836.85,1755695381.5248911,14:09:41
186369.0,72.0,100.0,99.0,3.0,0.17,-0.06,10.31,-0.03,0.01,0.01,19.17,30.46,-8.8,1837.07,1755695381.5797741,14:09:41
186390.0,72.0,100.0,99.0,3.0,0.17,-0.06,10.31,-0.03,0.01,0.0,19.18,30.46,-8.81,1837.28,1755695381.6315937,14:09:41
186411.0,72.0,100.0,99.0,3.0,0.17,-0.07,10.3,-0.03,0.01,0.01,19.18,30.47,-8.81,1837.5,1755695381.6877258,14:09:41
186434.0,21.0,100.0,99.0,3.0,0.18,-0.06,10.32,-0.03,0.01,0.01,19.2,30.47,-8.81,1837.74,1755695381.7392697,14:09:41
186455.0,21.0,100.0,99.0,3.0,0.15,-0.04,10.32,-0.03,0.01,0.0,19.17,30.47,-8.81,1837.95,1755695381.7940207,14:09:41
186476.0,72.0,100.0,99.0,3.0,0.18,-0.03,10.33,-0.03,0.01,0.0,19.18,30.48,-8.81,1838.17,1755695381.8440075,14:09:41
186497.0,72.0,100.0,99.0,3.0,0.15,-0.04,10.33,-0.02,0.01,0.01,19.17,30.48,-8.81,1838.39,1755695381.8939412,14:09:41
186519.0,72.0,100.0,99.0,3.0,0.18,-0.05,10.33,-0.03,0.01,0.0,19.17,30.48,-8.81,1838.62,1755695381.9480307,14:09:41
186541.0,72.0,100.0,99.0,3.0,0.16,-0.04,10.3,-0.03,0.01,0.01,19.18,30.49,-8.81,1838.84,1755695382.000277,14:09:42
186562.0,72.0,100.0,99.0,3.0,0.17,-0.05,10.3,-0.02,0.01,0.01,19.18,30.49,-8.81,1839.06,1755695382.051501,14:09:42
186584.0,72.0,100.0,99.0,3.0,0.17,-0.05,10.32,-0.02,0.01,0.01,19.18,30.5,-8.82,1839.29,1755695382.1011045,14:09:42
186605.0,72.0,100.0,99.0,3.0,0.16,-0.05,10.32,-0.02,0.01,0.0,19.18,30.5,-8.82,1839.5,1755695382.1508074,14:09:42
186626.0,72.0,100.0,99.0,3.0,0.16,-0.05,10.31,-0.03,0.01,0.01,19.17,30.5,-8.82,1839.72,1755695382.2953198,14:09:42
186649.0,72.0,100.0,99.0,3.0,0.16,-0.06,10.28,-0.02,0.01,0.0,19.18,30.51,-8.82,1839.96,1755695382.3466847,14:09:42
186670.0,72.0,100.0,99.0,3.0,0.15,-0.05,10.35,-0.03,0.01,0.01,19.16,30.51,-8.82,1840.17,1755695382.395413,14:09:42
186691.0,72.0,100.0,99.0,3.0,0.16,-0.04,10.32,-0.03,0.01,0.0,19.16,30.51,-8.82,1840.39,1755695382.4434156,14:09:42
186713.0,72.0,100.0,99.0,3.0,0.18,-0.03,10.3,-0.02,0.01,0.0,19.17,30.52,-8.82,1840.62,1755695382.4974213,14:09:42
186734.0,72.0,100.0,99.0,3.0,0.17,-0.05,10.3,-0.03,0.01,0.01,19.17,30.52,-8.82,1840.83,1755695382.548463,14:09:42
186756.0,72.0,100.0,99.0,3.0,0.17,-0.05,10.31,-0.03,0.01,0.01,19.19,30.52,-8.82,1841.06,1755695382.5970829,14:09:42
186778.0,72.0,100.0,99.0,3.0,0.16,-0.05,10.31,-0.03,0.01,0.01,19.17,30.53,-8.82,1841.29,1755695382.6485927,14:09:42
186800.0,72.0,100.0,99.0,3.0,0.16,-0.04,10.29,-0.03,0.01,0.01,19.17,30.53,-8.83,1841.51,1755695382.7020104,14:09:42
186821.0,72.0,100.0,99.0,3.0,0.2,-0.05,10.32,-0.02,0.01,0.01,19.18,30.53,-8.83,1841.73,1755695382.7556913,14:09:42
186842.0,72.0,100.0,99.0,3.0,0.17,-0.06,10.3,-0.02,0.01,0.01,19.17,30.54,-8.83,1841.95,1755695382.8065722,14:09:42
186864.0,72.0,100.0,99.0,3.0,0.17,-0.07,10.31,-0.03,0.01,0.0,19.16,30.54,-8.83,1842.17,1755695382.8558965,14:09:42
186885.0,72.0,100.0,99.0,3.0,0.15,-0.05,10.31,-0.03,0.01,0.01,19.17,30.55,-8.83,1842.39,1755695382.915504,14:09:42
186907.0,72.0,100.0,99.0,3.0,0.17,-0.05,10.29,-0.02,0.01,0.0,19.17,30.55,-8.83,1842.62,1755695382.9658298,14:09:42
186928.0,72.0,100.0,99.0,3.0,0.17,-0.05,10.33,-0.03,0.01,0.0,19.17,30.55,-8.83,1842.83,1755695383.0164921,14:09:43
186949.0,72.0,100.0,99.0,3.0,0.16,-0.06,10.33,-0.03,0.01,0.01,19.17,30.56,-8.83,1843.05,1755695383.0665333,14:09:43
186971.0,72.0,100.0,99.0,3.0,0.17,-0.06,10.29,-0.02,0.01,0.0,19.17,30.56,-8.84,1843.28,1755695383.1285222,14:09:43
186992.0,72.0,100.0,99.0,3.0,0.15,-0.05,10.32,-0.02,0.01,0.01,19.17,30.56,-8.84,1843.49,1755695383.177944,14:09:43
187014.0,72.0,100.0,99.0,3.0,0.16,-0.06,10.34,-0.02,0.01,0.0,19.19,30.57,-8.84,1843.72,1755695383.2286367,14:09:43
187035.0,72.0,100.0,99.0,3.0,0.17,-0.04,10.31,-0.03,0.01,0.01,19.16,30.57,-8.84,1843.94,1755695383.2800431,14:09:43
187056.0,72.0,100.0,99.0,3.0,0.19,-0.06,10.27,-0.02,0.01,0.0,19.19,30.57,-8.84,1844.15,1755695383.3325396,14:09:43
187078.0,72.0,100.0,99.0,3.0,0.16,-0.05,10.33,-0.02,0.01,0.0,19.18,30.58,-8.84,1844.38,1755695383.3844972,14:09:43
187099.0,72.0,100.0,99.0,3.0,0.16,-0.05,10.3,-0.03,0.01,0.0,19.18,30.58,-8.84,1844.6,1755695383.433083,14:09:43
187122.0,72.0,100.0,99.0,3.0,0.17,-0.05,10.31,-0.03,0.01,0.0,19.17,30.58,-8.84,1844.83,1755695383.483681,14:09:43
187143.0,72.0,100.0,99.0,3.0,0.17,-0.04,10.3,-0.02,0.01,0.0,19.18,30.59,-8.84,1845.05,1755695383.5339978,14:09:43
187165.0,72.0,100.0,99.0,3.0,0.16,-0.05,10.3,-0.03,0.01,0.0,19.17,30.59,-8.84,1845.28,1755695383.5864182,14:09:43
187186.0,72.0,100.0,99.0,3.0,0.19,-0.05,10.3,-0.03,0.01,0.01,19.16,30.6,-8.85,1845.49,1755695383.6424718,14:09:43
187207.0,72.0,100.0,99.0,3.0,0.15,-0.06,10.32,-0.02,0.01,0.0,19.16,30.6,-8.85,1845.71,1755695383.691873,14:09:43
187228.0,72.0,100.0,99.0,3.0,0.18,-0.03,10.33,-0.02,0.01,0.01,19.17,30.6,-8.85,1845.93,1755695383.7475533,14:09:43
187250.0,72.0,100.0,99.0,3.0,0.17,-0.05,10.33,-0.03,0.01,0.01,19.17,30.61,-8.85,1846.15,1755695383.7947931,14:09:43
187271.0,72.0,100.0,99.0,3.0,0.18,-0.07,10.3,-0.03,0.01,0.0,19.17,30.61,-8.85,1846.37,1755695383.8445883,14:09:43
187292.0,72.0,100.0,99.0,3.0,0.19,-0.06,10.3,-0.03,0.01,0.0,19.17,30.61,-8.85,1846.59,1755695383.8929777,14:09:43
187315.0,72.0,100.0,99.0,3.0,0.17,-0.04,10.3,-0.02,0.01,0.0,19.17,30.62,-8.85,1846.82,1755695383.9432094,14:09:43
187336.0,72.0,100.0,99.0,3.0,0.15,-0.04,10.3,-0.03,0.01,0.0,19.17,30.62,-8.85,1847.04,1755695384.0066357,14:09:44
187357.0,72.0,100.0,99.0,3.0,0.19,-0.04,10.31,-0.03,0.01,0.0,19.19,30.63,-8.85,1847.26,1755695384.0581632,14:09:44
187379.0,72.0,100.0,99.0,3.0,0.17,-0.05,10.32,-0.02,0.01,0.0,19.19,30.63,-8.86,1847.48,1755695384.1150105,14:09:44
187400.0,72.0,100.0,99.0,3.0,0.17,-0.03,10.31,-0.03,0.01,0.0,19.16,30.63,-8.86,1847.7,1755695384.2460785,14:09:44
187421.0,72.0,100.0,99.0,3.0,0.18,-0.06,10.3,-0.03,0.01,0.01,19.18,30.64,-8.86,1847.92,1755695384.297333,14:09:44
187442.0,72.0,100.0,99.0,3.0,0.15,-0.04,10.34,-0.03,0.01,0.0,19.16,30.64,-8.86,1848.13,1755695384.3488922,14:09:44
187463.0,72.0,100.0,99.0,3.0,0.17,-0.06,10.31,-0.03,0.01,0.0,19.16,30.64,-8.86,1848.35,1755695384.4009154,14:09:44
187484.0,72.0,100.0,99.0,3.0,0.17,-0.04,10.3,-0.02,0.01,0.0,19.16,30.65,-8.86,1848.57,1755695384.453719,14:09:44
187505.0,72.0,100.0,99.0,3.0,0.18,-0.07,10.31,-0.02,0.01,0.0,19.15,30.65,-8.86,1848.78,1755695384.50404,14:09:44
187526.0,71.0,100.0,99.0,3.0,0.16,-0.05,10.34,-0.02,0.01,0.0,19.17,30.65,-8.86,1849.0,1755695384.5562034,14:09:44
187547.0,71.0,100.0,99.0,3.0,0.17,-0.06,10.32,-0.03,0.01,0.0,19.17,30.66,-8.86,1849.22,1755695384.60757,14:09:44
187569.0,0.0,100.0,0.0,3.0,0.18,-0.07,10.35,-0.03,0.01,0.01,19.16,30.66,-8.87,1849.44,1755695384.6576502,14:09:44
187590.0,0.0,100.0,0.0,3.0,0.18,-0.05,10.32,-0.03,0.01,0.01,19.16,30.66,-8.87,1849.66,1755695384.7121248,14:09:44
187612.0,0.0,100.0,0.0,3.0,0.18,-0.06,10.3,-0.03,0.01,0.0,19.17,30.67,-8.87,1849.89,1755695384.8642368,14:09:44
187633.0,0.0,100.0,0.0,3.0,0.16,-0.06,10.3,-0.03,0.01,0.01,19.17,30.67,-8.87,1850.1,1755695384.9206152,14:09:44
187655.0,0.0,100.0,0.0,3.0,0.17,-0.05,10.35,-0.03,0.01,0.0,19.17,30.68,-8.87,1850.33,1755695384.9720778,14:09:44
187676.0,0.0,100.0,0.0,3.0,0.17,-0.06,10.31,-0.03,0.01,0.01,19.18,30.68,-8.87,1850.55,1755695385.0263453,14:09:45
187697.0,0.0,100.0,0.0,3.0,0.19,-0.06,10.32,-0.03,0.01,0.01,19.18,30.68,-8.87,1850.76,1755695385.0784366,14:09:45
187719.0,0.0,100.0,0.0,3.0,0.17,-0.05,10.3,-0.03,0.01,0.01,19.18,30.69,-8.87,1850.99,1755695385.1264968,14:09:45
187740.0,0.0,100.0,0.0,3.0,0.15,-0.05,10.32,-0.03,0.01,0.0,19.18,30.69,-8.87,1851.21,1755695385.1812859,14:09:45
187761.0,0.0,100.0,0.0,3.0,0.17,-0.04,10.32,-0.03,0.01,0.01,19.18,30.69,-8.88,1851.42,1755695385.2352343,14:09:45
187783.0,0.0,100.0,0.0,3.0,0.18,-0.06,10.31,-0.02,0.01,0.0,19.17,30.7,-8.88,1851.65,1755695385.2851694,14:09:45
187804.0,0.0,100.0,0.0,3.0,0.17,-0.05,10.29,-0.02,0.01,0.0,19.17,30.7,-8.88,1851.87,1755695385.3330674,14:09:45
187826.0,0.0,100.0,0.0,3.0,0.17,-0.05,10.29,-0.03,0.01,0.01,19.17,30.71,-8.88,1852.09,1755695385.3813546,14:09:45
187847.0,0.0,100.0,0.0,3.0,0.16,-0.07,10.3,-0.03,0.01,0.0,19.17,30.71,-8.88,1852.31,1755695385.429955,14:09:45
187868.0,0.0,100.0,0.0,3.0,0.16,-0.08,10.32,-0.03,0.01,0.01,19.16,30.71,-8.88,1852.53,1755695385.4846497,14:09:45
187890.0,0.0,100.0,0.0,3.0,0.17,-0.06,10.28,-0.03,0.01,0.01,19.19,30.72,-8.88,1852.75,1755695385.5329936,14:09:45
187911.0,0.0,100.0,0.0,3.0,0.17,-0.05,10.3,-0.02,0.01,0.01,19.19,30.72,-8.88,1852.97,1755695385.5815818,14:09:45
187933.0,0.0,100.0,0.0,3.0,0.19,-0.05,10.3,-0.03,0.01,0.0,19.19,30.72,-8.89,1853.19,1755695385.6320279,14:09:45
187954.0,0.0,100.0,0.0,3.0,0.18,-0.06,10.29,-0.02,0.01,0.01,19.19,30.73,-8.89,1853.41,1755695385.6810381,14:09:45
187975.0,0.0,100.0,0.0,3.0,0.18,-0.04,10.3,-0.02,0.01,0.01,19.18,30.73,-8.89,1853.63,1755695385.739882,14:09:45
187997.0,0.0,100.0,0.0,3.0,0.15,-0.04,10.3,-0.03,0.01,0.0,19.18,30.73,-8.89,1853.85,1755695385.7925622,14:09:45
188018.0,0.0,100.0,0.0,3.0,0.18,-0.06,10.3,-0.02,0.01,0.0,19.18,30.74,-8.89,1854.07,1755695385.8456538,14:09:45
188040.0,0.0,100.0,0.0,3.0,0.18,-0.04,10.31,-0.03,0.01,0.0,19.19,30.74,-8.89,1854.3,1755695385.895547,14:09:45
188062.0,0.0,100.0,0.0,3.0,0.19,-0.05,10.32,-0.03,0.01,0.01,19.19,30.75,-8.89,1854.52,1755695385.9507928,14:09:45
188083.0,0.0,100.0,0.0,3.0,0.17,-0.06,10.31,-0.03,0.01,0.0,19.19,30.75,-8.89,1854.74,1755695386.0453572,14:09:46
188105.0,0.0,100.0,0.0,3.0,0.17,-0.04,10.29,-0.03,0.01,0.0,19.19,30.75,-8.89,1854.97,1755695386.1067069,14:09:46
188126.0,0.0,100.0,0.0,3.0,0.17,-0.04,10.31,-0.03,0.01,0.01,19.17,30.76,-8.9,1855.18,1755695386.157518,14:09:46
188148.0,0.0,100.0,0.0,3.0,0.17,-0.06,10.3,-0.02,0.01,0.0,19.19,30.76,-8.9,1855.41,1755695386.238037,14:09:46
188169.0,0.0,100.0,0.0,3.0,0.16,-0.04,10.31,-0.03,0.01,0.0,19.19,30.76,-8.9,1855.63,1755695386.2923415,14:09:46
188190.0,0.0,100.0,0.0,3.0,0.17,-0.05,10.33,-0.03,0.01,0.0,19.17,30.77,-8.9,1855.84,1755695386.3433518,14:09:46
188212.0,0.0,100.0,0.0,3.0,0.18,-0.05,10.3,-0.03,0.01,0.0,19.18,30.77,-8.9,1856.07,1755695386.3905923,14:09:46
188233.0,0.0,100.0,0.0,3.0,0.18,-0.05,10.31,-0.02,0.01,0.01,19.17,30.78,-8.9,1856.29,1755695386.443034,14:09:46
188255.0,0.0,100.0,0.0,3.0,0.16,-0.05,10.31,-0.03,0.01,0.01,19.18,30.78,-8.9,1856.51,1755695386.4914155,14:09:46
188276.0,0.0,100.0,0.0,3.0,0.18,-0.04,10.29,-0.02,0.01,0.01,19.17,30.78,-8.9,1856.73,1755695386.540821,14:09:46
188297.0,0.0,100.0,0.0,3.0,0.18,-0.05,10.3,-0.03,0.01,0.0,19.17,30.79,-8.9,1856.95,1755695386.5923245,14:09:46
188319.0,0.0,100.0,0.0,3.0,0.17,-0.04,10.32,-0.02,0.01,0.01,19.18,30.79,-8.9,1857.17,1755695386.6480699,14:09:46
188340.0,0.0,100.0,0.0,3.0,0.18,-0.06,10.31,-0.02,0.01,0.0,19.19,30.79,-8.91,1857.39,1755695386.698927,14:09:46
188362.0,0.0,100.0,0.0,3.0,0.18,-0.05,10.3,-0.03,0.01,0.01,19.16,30.8,-8.91,1857.62,1755695386.803507,14:09:46
188383.0,0.0,100.0,0.0,3.0,0.17,-0.04,10.31,-0.02,0.01,0.0,19.17,30.8,-8.91,1857.83,1755695386.8530881,14:09:46
188404.0,0.0,100.0,0.0,3.0,0.17,-0.05,10.32,-0.02,0.01,0.0,19.17,30.8,-8.91,1858.05,1755695386.9192023,14:09:46
188426.0,0.0,100.0,0.0,3.0,0.18,-0.04,10.31,-0.03,0.01,0.0,19.18,30.81,-8.91,1858.28,1755695386.9694002,14:09:46
188447.0,0.0,100.0,0.0,3.0,0.18,-0.04,10.3,-0.02,0.01,0.01,19.17,30.81,-8.91,1858.49,1755695387.0277586,14:09:47
188469.0,0.0,100.0,0.0,3.0,0.18,-0.06,10.33,-0.02,0.01,0.0,19.17,30.82,-8.91,1858.72,1755695387.0818846,14:09:47
188490.0,0.0,100.0,0.0,3.0,0.18,-0.06,10.29,-0.03,0.01,0.0,19.17,30.82,-8.91,1858.94,1755695387.1385736,14:09:47
188511.0,0.0,100.0,0.0,3.0,0.18,-0.06,10.3,-0.03,0.01,0.0,19.16,30.82,-8.91,1859.15,1755695387.1907167,14:09:47
188533.0,0.0,100.0,0.0,3.0,0.18,-0.07,10.33,-0.03,0.01,0.01,19.19,30.83,-8.92,1859.38,1755695387.2464225,14:09:47
188554.0,0.0,100.0,0.0,3.0,0.18,-0.05,10.29,-0.03,0.01,0.01,19.18,30.83,-8.92,1859.6,1755695387.3076556,14:09:47
188576.0,0.0,100.0,0.0,3.0,0.17,-0.04,10.3,-0.02,0.01,0.0,19.17,30.84,-8.92,1859.82,1755695387.3568938,14:09:47
188597.0,0.0,100.0,0.0,3.0,0.16,-0.04,10.3,-0.03,0.01,0.01,19.18,30.84,-8.92,1860.04,1755695387.4166546,14:09:47
188618.0,0.0,100.0,0.0,3.0,0.16,-0.04,10.33,-0.02,0.01,0.0,19.17,30.84,-8.92,1860.26,1755695387.4749293,14:09:47
188640.0,0.0,100.0,0.0,3.0,0.17,-0.05,10.32,-0.03,0.01,0.01,19.18,30.85,-8.92,1860.48,1755695387.5277116,14:09:47
188661.0,0.0,100.0,0.0,3.0,0.15,-0.04,10.32,-0.02,0.01,0.0,19.17,30.85,-8.92,1860.7,1755695387.5753467,14:09:47
188683.0,0.0,100.0,0.0,3.0,0.17,-0.04,10.33,-0.03,0.01,0.01,19.18,30.85,-8.92,1860.93,1755695387.6255066,14:09:47
188704.0,0.0,100.0,0.0,3.0,0.17,-0.03,10.31,-0.03,0.01,0.01,19.17,30.86,-8.92,1861.14,1755695387.6730127,14:09:47
188725.0,0.0,100.0,0.0,3.0,0.19,-0.06,10.3,-0.03,0.01,0.0,19.17,30.86,-8.92,1861.36,1755695387.7231016,14:09:47
188747.0,0.0,100.0,0.0,3.0,0.16,-0.06,10.3,-0.03,0.01,0.01,19.17,30.86,-8.93,1861.59,1755695387.7746012,14:09:47
188768.0,0.0,100.0,0.0,3.0,0.18,-0.04,10.31,-0.02,0.01,0.0,19.19,30.87,-8.93,1861.8,1755695387.8414397,14:09:47
188790.0,0.0,100.0,0.0,3.0,0.17,-0.03,10.3,-0.03,0.01,0.01,19.16,30.87,-8.93,1862.03,1755695387.8927448,14:09:47
188811.0,0.0,100.0,0.0,3.0,0.16,-0.05,10.3,-0.03,0.01,0.0,19.17,30.87,-8.93,1862.25,1755695387.9443045,14:09:47
188832.0,0.0,100.0,0.0,3.0,0.17,-0.05,10.32,-0.03,0.01,0.0,19.17,30.88,-8.93,1862.46,1755695387.9924433,14:09:47
188854.0,0.0,100.0,0.0,3.0,0.16,-0.02,10.29,-0.02,0.01,0.0,19.17,30.88,-8.93,1862.69,1755695388.0414722,14:09:48
188875.0,0.0,100.0,0.0,3.0,0.16,-0.05,10.3,-0.03,0.01,0.0,19.18,30.89,-8.93,1862.91,1755695388.0970852,14:09:48
188897.0,0.0,100.0,0.0,3.0,0.18,-0.04,10.32,-0.03,0.01,0.0,19.17,30.89,-8.93,1863.13,1755695388.14641,14:09:48
188918.0,0.0,100.0,0.0,3.0,0.18,-0.05,10.3,-0.02,0.01,0.01,19.16,30.89,-8.93,1863.35,1755695388.1977718,14:09:48
188939.0,0.0,100.0,0.0,3.0,0.16,-0.06,10.3,-0.03,0.01,0.01,19.18,30.9,-8.93,1863.57,1755695388.2573276,14:09:48
188961.0,0.0,100.0,0.0,3.0,0.16,-0.05,10.32,-0.02,0.01,0.0,19.17,30.9,-8.94,1863.79,1755695388.338799,14:09:48
188983.0,0.0,100.0,0.0,3.0,0.16,-0.05,10.33,-0.02,0.01,0.0,19.16,30.9,-8.94,1864.02,1755695388.3879097,14:09:48
189005.0,0.0,100.0,0.0,3.0,0.18,-0.05,10.31,-0.02,0.01,0.0,19.18,30.91,-8.94,1864.25,1755695388.4393737,14:09:48
189026.0,0.0,100.0,0.0,3.0,0.17,-0.04,10.3,-0.02,0.01,0.0,19.17,30.91,-8.94,1864.46,1755695388.4880478,14:09:48
189048.0,0.0,100.0,0.0,3.0,0.18,-0.06,10.3,-0.03,0.01,0.0,19.17,30.91,-8.94,1864.69,1755695388.5506842,14:09:48
189069.0,0.0,100.0,0.0,3.0,0.15,-0.05,10.31,-0.03,0.01,0.0,19.16,30.92,-8.94,1864.91,1755695388.5992355,14:09:48
189090.0,0.0,100.0,0.0,3.0,0.18,-0.03,10.32,-0.02,0.01,0.0,19.16,30.92,-8.94,1865.12,1755695388.653802,14:09:48
189112.0,0.0,100.0,0.0,3.0,0.17,-0.05,10.31,-0.02,0.01,0.01,19.17,30.93,-8.94,1865.35,1755695388.7042072,14:09:48
189133.0,0.0,100.0,0.0,3.0,0.17,-0.04,10.3,-0.03,0.01,0.0,19.16,30.93,-8.94,1865.57,1755695388.7537143,14:09:48
189155.0,0.0,100.0,0.0,3.0,0.17,-0.05,10.32,-0.03,0.01,0.01,19.18,30.93,-8.94,1865.79,1755695388.8549922,14:09:48
189176.0,0.0,100.0,0.0,3.0,0.18,-0.07,10.31,-0.02,0.01,0.01,19.16,30.94,-8.95,1866.01,1755695388.903951,14:09:48
189197.0,0.0,100.0,0.0,3.0,0.18,-0.05,10.32,-0.02,0.01,0.0,19.16,30.94,-8.95,1866.23,1755695388.960279,14:09:48
189218.0,0.0,100.0,0.0,3.0,0.17,-0.05,10.3,-0.03,0.01,0.0,19.17,30.94,-8.95,1866.44,1755695389.0127797,14:09:49
189239.0,0.0,100.0,0.0,3.0,0.18,-0.03,10.31,-0.02,0.01,0.0,19.16,30.95,-8.95,1866.66,1755695389.0652275,14:09:49
189260.0,0.0,100.0,0.0,3.0,0.18,-0.04,10.32,-0.03,0.01,0.0,19.17,30.95,-8.95,1866.88,1755695389.1139615,14:09:49
189281.0,0.0,100.0,0.0,3.0,0.17,-0.05,10.29,-0.03,0.01,0.01,19.16,30.95,-8.95,1867.09,1755695389.163251,14:09:49
189303.0,0.0,100.0,0.0,3.0,0.16,-0.04,10.31,-0.03,0.01,0.0,19.16,30.96,-8.95,1867.32,1755695389.2149625,14:09:49
189324.0,0.0,100.0,0.0,3.0,0.18,-0.05,10.31,-0.03,0.01,0.01,19.17,30.96,-8.95,1867.54,1755695389.268025,14:09:49
189345.0,0.0,100.0,0.0,3.0,0.17,-0.04,10.29,-0.03,0.01,0.0,19.18,30.97,-8.95,1867.75,1755695389.318674,14:09:49
189367.0,0.0,100.0,0.0,3.0,0.17,-0.05,10.3,-0.02,0.01,0.01,19.19,30.97,-8.95,1867.98,1755695389.3716602,14:09:49
189388.0,0.0,100.0,0.0,3.0,0.14,-0.04,10.32,-0.03,0.01,0.0,19.18,30.97,-8.96,1868.19,1755695389.4237041,14:09:49
189410.0,0.0,100.0,0.0,3.0,0.17,-0.06,10.31,-0.03,0.01,0.01,19.18,30.98,-8.96,1868.42,1755695389.475919,14:09:49
189431.0,0.0,100.0,0.0,3.0,0.16,-0.04,10.31,-0.02,0.01,0.01,19.17,30.98,-8.96,1868.64,1755695389.5261748,14:09:49
189453.0,0.0,100.0,0.0,3.0,0.17,-0.05,10.31,-0.03,0.01,0.0,19.17,30.98,-8.96,1868.86,1755695389.5809143,14:09:49
189474.0,0.0,100.0,0.0,3.0,0.18,-0.03,10.32,-0.03,0.01,0.0,19.18,30.99,-8.96,1869.08,1755695389.6310198,14:09:49
189496.0,0.0,100.0,0.0,3.0,0.17,-0.04,10.3,-0.03,0.01,0.01,19.17,30.99,-8.96,1869.31,1755695389.6839113,14:09:49
189518.0,0.0,100.0,0.0,3.0,0.17,-0.06,10.3,-0.02,0.01,0.01,19.19,30.99,-8.96,1869.53,1755695389.7339783,14:09:49
189539.0,0.0,0.0,0.0,0.0,0.18,-0.07,10.33,-0.03,0.01,0.0,19.17,31.0,-8.96,1869.75,1755695389.7840436,14:09:49
189580.0,0.0,100.0,0.0,3.0,0.18,-0.06,10.3,-0.02,0.01,0.0,19.17,31.01,-8.97,1870.17,1755695389.8395915,14:09:49
189601.0,0.0,100.0,0.0,3.0,0.19,-0.06,10.33,-0.02,0.01,0.0,19.16,31.01,-8.97,1870.39,1755695389.8869724,14:09:49
189623.0,0.0,100.0,0.0,3.0,0.17,-0.04,10.32,-0.03,0.01,0.0,19.17,31.01,-8.97,1870.62,1755695389.9380631,14:09:49
189644.0,0.0,100.0,0.0,3.0,0.18,-0.05,10.31,-0.02,0.01,0.01,19.16,31.02,-8.97,1870.83,1755695389.9875307,14:09:49
189666.0,0.0,100.0,0.0,3.0,0.17,-0.05,10.3,-0.02,0.01,0.0,19.17,31.02,-8.97,1871.06,1755695390.0507622,14:09:50
189687.0,0.0,100.0,0.0,3.0,0.18,-0.05,10.3,-0.03,0.01,0.0,19.16,31.02,-8.97,1871.28,1755695390.1007667,14:09:50
189709.0,0.0,100.0,0.0,3.0,0.15,-0.04,10.3,-0.02,0.01,0.0,19.16,31.03,-8.97,1871.5,1755695390.1598628,14:09:50
189730.0,0.0,100.0,0.0,3.0,0.17,-0.05,10.31,-0.02,0.01,0.0,19.16,31.03,-8.97,1871.72,1755695390.210072,14:09:50
189751.0,0.0,100.0,0.0,3.0,0.16,-0.05,10.31,-0.03,0.01,0.0,19.17,31.04,-8.97,1871.94,1755695390.2632735,14:09:50
189773.0,0.0,100.0,0.0,3.0,0.16,-0.05,10.32,-0.02,0.01,0.0,19.17,31.04,-8.98,1872.16,1755695390.3108191,14:09:50
189794.0,0.0,100.0,0.0,3.0,0.15,-0.04,10.29,-0.02,0.01,0.0,19.17,31.04,-8.98,1872.38,1755695390.3609571,14:09:50
189816.0,0.0,100.0,0.0,3.0,0.16,-0.04,10.33,-0.03,0.01,0.01,19.16,31.05,-8.98,1872.61,1755695390.415285,14:09:50
189837.0,0.0,100.0,0.0,3.0,0.17,-0.07,10.29,-0.03,0.01,0.0,19.15,31.05,-8.98,1872.82,1755695390.4638288,14:09:50
189858.0,0.0,100.0,0.0,3.0,0.18,-0.06,10.32,-0.03,0.01,0.0,19.15,31.05,-8.98,1873.04,1755695390.5194612,14:09:50
189880.0,0.0,100.0,0.0,3.0,0.16,-0.06,10.29,-0.03,0.01,0.0,19.18,31.06,-8.98,1873.27,1755695390.57107,14:09:50
189901.0,0.0,100.0,0.0,3.0,0.17,-0.06,10.32,-0.03,0.01,0.01,19.16,31.06,-8.98,1873.48,1755695390.6272786,14:09:50
189923.0,70.0,100.0,50.0,3.0,0.15,-0.05,10.3,-0.03,0.01,0.0,19.18,31.06,-8.98,1873.71,1755695390.6795726,14:09:50
189944.0,70.0,100.0,50.0,3.0,0.16,-0.04,10.32,-0.03,0.01,0.0,19.17,31.07,-8.98,1873.93,1755695390.7288094,14:09:50
189965.0,70.0,100.0,50.0,3.0,0.17,-0.04,10.31,-0.02,0.01,0.01,19.17,31.07,-8.99,1874.14,1755695390.7811239,14:09:50
189986.0,70.0,100.0,50.0,3.0,0.18,-0.05,10.34,-0.02,0.01,0.01,19.18,31.07,-8.99,1874.36,1755695390.8311057,14:09:50
190009.0,70.0,100.0,50.0,3.0,0.16,-0.05,10.31,-0.02,0.01,0.01,19.16,31.08,-8.99,1874.6,1755695390.8897388,14:09:50
190031.0,70.0,100.0,50.0,3.0,0.17,-0.04,10.32,-0.03,0.01,0.01,19.16,31.08,-8.99,1874.83,1755695390.9388099,14:09:50
190052.0,70.0,100.0,50.0,3.0,0.17,-0.05,10.33,-0.02,0.01,0.0,19.18,31.08,-8.99,1875.04,1755695391.1027837,14:09:51
190073.0,70.0,100.0,50.0,3.0,0.17,-0.05,10.3,-0.03,0.01,0.01,19.16,31.09,-8.99,1875.26,1755695391.1703634,14:09:51
190094.0,70.0,100.0,50.0,3.0,0.17,-0.04,10.3,-0.03,0.01,0.0,19.15,31.09,-8.99,1875.47,1755695391.3071961,14:09:51
190117.0,70.0,100.0,50.0,3.0,0.16,-0.04,10.31,-0.02,0.01,0.0,19.16,31.1,-8.99,1875.71,1755695391.3566036,14:09:51
190138.0,70.0,100.0,50.0,3.0,0.16,-0.06,10.3,-0.03,0.01,0.0,19.17,31.1,-8.99,1875.93,1755695391.4049582,14:09:51
190159.0,70.0,100.0,50.0,3.0,0.2,-0.05,10.31,-0.02,0.01,0.0,19.18,31.1,-8.99,1876.14,1755695391.4605286,14:09:51
190181.0,70.0,100.0,50.0,3.0,0.18,-0.05,10.33,-0.02,0.01,0.0,19.17,31.11,-9.0,1876.37,1755695391.5102592,14:09:51
190202.0,70.0,100.0,50.0,3.0,0.18,-0.04,10.33,-0.03,0.01,0.0,19.18,31.11,-9.0,1876.59,1755695391.5590336,14:09:51
190224.0,70.0,100.0,50.0,3.0,0.17,-0.04,10.3,-0.03,0.01,0.01,19.17,31.11,-9.0,1876.82,1755695391.6103587,14:09:51
190245.0,70.0,100.0,50.0,3.0,0.16,-0.05,10.31,-0.02,0.01,0.01,19.17,31.12,-9.0,1877.03,1755695391.6639802,14:09:51
190266.0,70.0,100.0,50.0,3.0,0.18,-0.04,10.33,-0.03,0.01,0.0,19.17,31.12,-9.0,1877.25,1755695391.7265317,14:09:51
190288.0,70.0,100.0,50.0,3.0,0.18,-0.04,10.3,-0.02,0.01,0.0,19.15,31.13,-9.0,1877.48,1755695391.7878704,14:09:51
190309.0,70.0,100.0,50.0,3.0,0.17,-0.03,10.31,-0.03,0.01,0.01,19.14,31.13,-9.0,1877.69,1755695391.838568,14:09:51
190331.0,70.0,100.0,50.0,3.0,0.17,-0.07,10.28,-0.02,0.01,0.01,19.17,31.13,-9.0,1877.92,1755695391.8886867,14:09:51
190352.0,70.0,100.0,50.0,3.0,0.18,-0.03,10.3,-0.03,0.01,0.01,19.15,31.14,-9.0,1878.13,1755695391.9462798,14:09:51
190373.0,70.0,100.0,50.0,3.0,0.18,-0.04,10.3,-0.03,0.01,0.01,19.15,31.14,-9.0,1878.35,1755695392.023251,14:09:52
190395.0,70.0,100.0,50.0,3.0,0.17,-0.05,10.3,-0.03,0.01,0.0,19.17,31.14,-9.01,1878.58,1755695392.0731032,14:09:52
190417.0,70.0,100.0,50.0,3.0,0.19,-0.06,10.33,-0.02,0.01,0.01,19.16,31.15,-9.01,1878.8,1755695392.1226292,14:09:52
190439.0,70.0,100.0,50.0,3.0,0.17,-0.05,10.31,-0.03,0.01,0.0,19.16,31.15,-9.01,1879.03,1755695392.176748,14:09:52
190460.0,70.0,100.0,50.0,3.0,0.19,-0.05,10.3,-0.03,0.01,0.0,19.16,31.16,-9.01,1879.25,1755695392.2277398,14:09:52
190481.0,70.0,100.0,50.0,3.0,0.16,-0.06,10.29,-0.03,0.01,0.0,19.16,31.16,-9.01,1879.46,1755695392.278889,14:09:52
190502.0,70.0,100.0,50.0,3.0,0.16,-0.04,10.31,-0.03,0.01,0.0,19.15,31.16,-9.01,1879.68,1755695392.3369396,14:09:52
190524.0,70.0,100.0,50.0,3.0,0.18,-0.04,10.3,-0.02,0.01,0.0,19.15,31.17,-9.01,1879.91,1755695392.3883493,14:09:52
190545.0,70.0,100.0,50.0,3.0,0.18,-0.06,10.3,-0.02,0.01,0.0,19.15,31.17,-9.01,1880.12,1755695392.4405003,14:09:52
190567.0,70.0,100.0,50.0,3.0,0.15,-0.05,10.31,-0.03,0.01,0.0,19.17,31.17,-9.01,1880.35,1755695392.4930763,14:09:52
190588.0,70.0,100.0,51.0,3.0,0.16,-0.05,10.32,-0.02,0.01,0.01,19.17,31.18,-9.02,1880.57,1755695392.546325,14:09:52
190610.0,70.0,100.0,51.0,3.0,0.17,-0.06,10.3,-0.02,0.01,0.0,19.17,31.18,-9.02,1880.79,1755695392.5996375,14:09:52
190631.0,70.0,100.0,51.0,3.0,0.17,-0.05,10.33,-0.03,0.01,0.01,19.17,31.18,-9.02,1881.01,1755695392.6498218,14:09:52
190652.0,70.0,100.0,50.0,3.0,0.16,-0.04,10.32,-0.03,0.01,0.01,19.18,31.19,-9.02,1881.23,1755695392.7068439,14:09:52
190674.0,70.0,100.0,50.0,3.0,0.17,-0.07,10.31,-0.03,0.01,0.01,19.18,31.19,-9.02,1881.45,1755695392.758374,14:09:52
190695.0,70.0,100.0,50.0,3.0,0.17,-0.06,10.27,-0.03,0.01,0.01,19.18,31.2,-9.02,1881.67,1755695392.816985,14:09:52
190717.0,70.0,100.0,50.0,3.0,0.18,-0.04,10.3,-0.03,0.01,0.01,19.17,31.2,-9.02,1881.9,1755695392.870966,14:09:52
190738.0,70.0,100.0,51.0,3.0,0.17,-0.06,10.3,-0.02,0.01,0.0,19.17,31.2,-9.02,1882.11,1755695392.9289963,14:09:52
190760.0,70.0,100.0,51.0,3.0,0.15,-0.07,10.3,-0.03,0.01,0.01,19.17,31.21,-9.02,1882.34,1755695392.9767985,14:09:52
190781.0,70.0,100.0,51.0,3.0,0.18,-0.04,10.3,-0.03,0.01,0.0,19.16,31.21,-9.03,1882.56,1755695393.1564019,14:09:53
190802.0,70.0,100.0,51.0,3.0,0.16,-0.04,10.29,-0.03,0.01,0.0,19.16,31.21,-9.03,1882.77,1755695393.20785,14:09:53
190824.0,70.0,100.0,51.0,3.0,0.17,-0.07,10.32,-0.02,0.01,0.0,19.18,31.22,-9.03,1883.0,1755695393.2619493,14:09:53
190845.0,70.0,100.0,51.0,3.0,0.15,-0.04,10.3,-0.02,0.01,0.0,19.17,31.22,-9.03,1883.22,1755695393.311444,14:09:53
190867.0,70.0,100.0,51.0,3.0,0.17,-0.05,10.32,-0.02,0.01,0.0,19.17,31.22,-9.03,1883.44,1755695393.3802037,14:09:53
190888.0,70.0,100.0,51.0,3.0,0.2,-0.07,10.31,-0.02,0.01,0.0,19.18,31.23,-9.03,1883.66,1755695393.4572382,14:09:53
190909.0,70.0,100.0,51.0,3.0,0.19,-0.05,10.33,-0.03,0.01,0.01,19.18,31.23,-9.03,1883.88,1755695394.6674445,14:09:54
190931.0,70.0,100.0,51.0,3.0,0.18,-0.06,10.31,-0.03,0.01,0.0,19.16,31.24,-9.03,1884.1,1755695394.667567,14:09:54
190952.0,70.0,100.0,51.0,3.0,0.19,-0.05,10.32,-0.03,0.01,0.01,19.19,31.24,-9.03,1884.32,1755695394.6847353,14:09:54
190973.0,70.0,100.0,51.0,3.0,0.19,-0.07,10.34,-0.02,0.01,0.01,19.18,31.24,-9.04,1884.54,1755695394.684825,14:09:54
190994.0,70.0,100.0,51.0,3.0,0.17,-0.05,10.35,-0.03,0.01,0.0,19.18,31.25,-9.04,1884.75,1755695394.7356548,14:09:54
191015.0,70.0,100.0,51.0,3.0,0.16,-0.07,10.3,-0.02,0.01,0.01,19.19,31.25,-9.04,1884.97,1755695394.7878122,14:09:54
191038.0,70.0,100.0,51.0,3.0,0.16,-0.05,10.28,-0.03,0.01,0.0,19.18,31.25,-9.04,1885.21,1755695394.8399823,14:09:54
191059.0,70.0,100.0,51.0,3.0,0.17,-0.04,10.31,-0.02,0.01,0.01,19.18,31.26,-9.04,1885.42,1755695394.9011767,14:09:54
191080.0,70.0,100.0,51.0,3.0,0.17,-0.05,10.33,-0.02,0.01,0.01,19.18,31.26,-9.04,1885.64,1755695394.9491868,14:09:54
191103.0,70.0,100.0,51.0,3.0,0.18,-0.04,10.3,-0.03,0.01,0.01,19.18,31.27,-9.04,1885.88,1755695394.9988513,14:09:54
191124.0,70.0,100.0,51.0,3.0,0.17,-0.05,10.31,-0.03,0.01,0.01,19.17,31.27,-9.04,1886.09,1755695395.0489001,14:09:55
191146.0,70.0,100.0,51.0,3.0,0.18,-0.06,10.31,-0.02,0.01,0.0,19.17,31.27,-9.04,1886.32,1755695395.1031268,14:09:55
191167.0,70.0,100.0,51.0,3.0,0.17,-0.07,10.3,-0.02,0.01,0.0,19.19,31.28,-9.05,1886.54,1755695395.1585298,14:09:55
191188.0,70.0,100.0,51.0,3.0,0.18,-0.04,10.31,-0.02,0.01,0.0,19.17,31.28,-9.05,1886.75,1755695395.225971,14:09:55
191210.0,70.0,100.0,51.0,3.0,0.17,-0.05,10.32,-0.03,0.01,0.0,19.19,31.28,-9.05,1886.98,1755695395.2801344,14:09:55
191231.0,70.0,100.0,51.0,3.0,0.17,-0.04,10.3,-0.03,0.01,0.0,19.2,31.29,-9.05,1887.2,1755695395.3308165,14:09:55
191253.0,70.0,100.0,51.0,3.0,0.19,-0.04,10.29,-0.03,0.01,0.0,19.18,31.29,-9.05,1887.42,1755695395.3967724,14:09:55
191274.0,70.0,100.0,51.0,3.0,0.16,-0.05,10.3,-0.03,0.01,0.0,19.17,31.3,-9.05,1887.64,1755695395.4554036,14:09:55
191295.0,70.0,100.0,51.0,3.0,0.16,-0.05,10.3,-0.03,0.01,0.01,19.16,31.3,-9.05,1887.86,1755695395.509399,14:09:55
191317.0,70.0,100.0,51.0,3.0,0.16,-0.06,10.3,-0.02,0.01,0.01,19.17,31.3,-9.05,1888.08,1755695395.5653312,14:09:55
191339.0,70.0,100.0,51.0,3.0,0.17,-0.04,10.28,-0.03,0.01,0.0,19.17,31.31,-9.05,1888.31,1755695395.6297247,14:09:55
191361.0,70.0,100.0,51.0,3.0,0.18,-0.04,10.33,-0.03,0.01,0.01,19.18,31.31,-9.06,1888.54,1755695395.71512,14:09:55
191382.0,70.0,100.0,51.0,3.0,0.17,-0.04,10.31,-0.03,0.01,0.01,19.18,31.31,-9.06,1888.75,1755695395.7652037,14:09:55
191404.0,70.0,100.0,51.0,3.0,0.17,-0.05,10.32,-0.03,0.01,0.0,19.17,31.32,-9.06,1888.98,1755695395.948724,14:09:55
191425.0,70.0,100.0,51.0,3.0,0.18,-0.03,10.32,-0.03,0.01,0.0,19.18,31.32,-9.06,1889.2,1755695396.1101198,14:09:56
191446.0,70.0,100.0,51.0,3.0,0.16,-0.06,10.33,-0.02,0.01,0.01,19.19,31.33,-9.06,1889.41,1755695396.2639437,14:09:56
191468.0,70.0,100.0,51.0,3.0,0.15,-0.06,10.33,-0.03,0.01,0.0,19.17,31.33,-9.06,1889.64,1755695396.4396613,14:09:56
191489.0,70.0,100.0,51.0,3.0,0.17,-0.05,10.31,-0.03,0.01,0.01,19.2,31.33,-9.06,1889.86,1755695396.5227726,14:09:56
191511.0,70.0,100.0,51.0,3.0,0.15,-0.05,10.34,-0.03,0.01,0.01,19.19,31.34,-9.06,1890.08,1755695396.5756497,14:09:56
191532.0,70.0,100.0,51.0,3.0,0.17,-0.06,10.34,-0.02,0.01,0.01,19.18,31.34,-9.06,1890.3,1755695396.7638285,14:09:56
191554.0,70.0,100.0,51.0,3.0,0.19,-0.06,10.31,-0.02,0.01,0.0,19.18,31.34,-9.06,1890.53,1755695396.8427675,14:09:56
191575.0,70.0,100.0,51.0,3.0,0.16,-0.07,10.3,-0.03,0.01,0.01,19.19,31.35,-9.07,1890.74,1755695396.891903,14:09:56
191596.0,70.0,100.0,51.0,3.0,0.19,-0.04,10.3,-0.02,0.01,0.0,19.19,31.35,-9.07,1890.96,1755695396.9436984,14:09:56
191618.0,70.0,100.0,51.0,3.0,0.18,-0.04,10.31,-0.02,0.01,0.01,19.17,31.35,-9.07,1891.19,1755695396.9942577,14:09:56
191639.0,70.0,100.0,51.0,3.0,0.2,-0.04,10.32,-0.02,0.01,0.01,19.17,31.36,-9.07,1891.4,1755695397.0440648,14:09:57
191661.0,70.0,100.0,51.0,3.0,0.17,-0.03,10.3,-0.02,0.01,0.0,19.18,31.36,-9.07,1891.63,1755695397.0947385,14:09:57
191682.0,70.0,100.0,51.0,3.0,0.16,-0.04,10.32,-0.02,0.01,0.0,19.19,31.37,-9.07,1891.85,1755695397.143466,14:09:57
191703.0,70.0,100.0,51.0,3.0,0.16,-0.05,10.29,-0.03,0.01,0.01,19.18,31.37,-9.07,1892.06,1755695397.1911898,14:09:57
191725.0,70.0,100.0,51.0,3.0,0.17,-0.03,10.31,-0.03,0.01,0.01,19.17,31.37,-9.07,1892.29,1755695397.2425861,14:09:57
191746.0,70.0,100.0,51.0,3.0,0.16,-0.04,10.33,-0.02,0.01,0.0,19.17,31.38,-9.07,1892.51,1755695397.2941482,14:09:57
191768.0,70.0,100.0,51.0,3.0,0.18,-0.04,10.31,-0.02,0.01,0.0,19.17,31.38,-9.07,1892.73,1755695397.3444533,14:09:57
191789.0,70.0,100.0,51.0,3.0,0.18,-0.06,10.34,-0.02,0.01,0.01,19.18,31.38,-9.08,1892.95,1755695397.3955786,14:09:57
191811.0,70.0,100.0,51.0,3.0,0.17,-0.05,10.31,-0.03,0.01,0.0,19.18,31.39,-9.08,1893.18,1755695397.4449747,14:09:57
191832.0,70.0,100.0,51.0,3.0,0.18,-0.05,10.3,-0.02,0.01,0.0,19.18,31.39,-9.08,1893.39,1755695397.4943662,14:09:57
191853.0,70.0,100.0,51.0,3.0,0.18,-0.04,10.3,-0.02,0.01,0.0,19.18,31.4,-9.08,1893.61,1755695397.5478468,14:09:57
191875.0,70.0,100.0,51.0,3.0,0.16,-0.04,10.33,-0.03,0.01,0.01,19.18,31.4,-9.08,1893.84,1755695397.6013937,14:09:57
191896.0,70.0,100.0,51.0,3.0,0.18,-0.03,10.34,-0.03,0.01,0.01,19.18,31.4,-9.08,1894.05,1755695397.6611893,14:09:57
191918.0,70.0,100.0,51.0,3.0,0.16,-0.05,10.31,-0.02,0.01,0.0,19.17,31.41,-9.08,1894.28,1755695397.719765,14:09:57
191939.0,70.0,100.0,51.0,3.0,0.16,-0.05,10.32,-0.02,0.01,0.0,19.19,31.41,-9.08,1894.5,1755695397.7704837,14:09:57
191960.0,70.0,100.0,51.0,3.0,0.17,-0.03,10.3,-0.03,0.01,0.01,19.18,31.41,-9.08,1894.72,1755695397.8184466,14:09:57
191981.0,70.0,100.0,51.0,3.0,0.17,-0.05,10.31,-0.02,0.01,0.01,19.17,31.42,-9.08,1894.93,1755695397.8682299,14:09:57
192002.0,70.0,100.0,51.0,3.0,0.17,-0.06,10.32,-0.02,0.01,0.0,19.17,31.42,-9.08,1895.15,1755695397.9160595,14:09:57
192023.0,70.0,100.0,51.0,3.0,0.17,-0.06,10.32,-0.02,0.01,0.0,19.17,31.42,-9.09,1895.37,1755695398.069575,14:09:58
192044.0,70.0,100.0,51.0,3.0,0.16,-0.06,10.31,-0.03,0.01,0.0,19.19,31.43,-9.09,1895.58,1755695398.1211288,14:09:58
192066.0,70.0,100.0,51.0,3.0,0.17,-0.04,10.3,-0.03,0.01,0.01,19.2,31.43,-9.09,1895.81,1755695398.17094,14:09:58
192087.0,70.0,100.0,51.0,3.0,0.17,-0.05,10.31,-0.02,0.01,0.0,19.18,31.43,-9.09,1896.03,1755695398.2182999,14:09:58
192108.0,70.0,100.0,51.0,3.0,0.17,-0.05,10.29,-0.03,0.01,0.01,19.16,31.44,-9.09,1896.24,1755695398.2660024,14:09:58
192130.0,70.0,100.0,51.0,3.0,0.19,-0.04,10.32,-0.03,0.01,0.0,19.18,31.44,-9.09,1896.47,1755695398.319821,14:09:58
192151.0,70.0,100.0,51.0,3.0,0.19,-0.04,10.28,-0.02,0.01,0.01,19.17,31.45,-9.09,1896.68,1755695398.375794,14:09:58
192173.0,70.0,100.0,51.0,3.0,0.19,-0.07,10.31,-0.03,0.01,0.0,19.19,31.45,-9.09,1896.91,1755695398.492527,14:09:58
192194.0,70.0,100.0,51.0,3.0,0.18,-0.03,10.28,-0.03,0.01,0.0,19.19,31.45,-9.09,1897.13,1755695398.5419664,14:09:58
192215.0,70.0,100.0,51.0,3.0,0.17,-0.05,10.3,-0.03,0.01,0.0,19.18,31.46,-9.1,1897.34,1755695398.5987077,14:09:58
192237.0,70.0,100.0,51.0,3.0,0.19,-0.07,10.29,-0.03,0.01,0.0,19.19,31.46,-9.1,1897.57,1755695398.6533408,14:09:58
192258.0,70.0,100.0,51.0,3.0,0.15,-0.04,10.31,-0.02,0.01,0.0,19.19,31.47,-9.1,1897.79,1755695398.712657,14:09:58
192280.0,70.0,100.0,51.0,3.0,0.17,-0.04,10.31,-0.03,0.01,0.01,19.17,31.47,-9.1,1898.01,1755695398.7614887,14:09:58
192301.0,70.0,100.0,51.0,3.0,0.16,-0.05,10.3,-0.03,0.01,0.01,19.17,31.47,-9.1,1898.23,1755695398.8150985,14:09:58
192322.0,70.0,100.0,51.0,3.0,0.18,-0.05,10.33,-0.03,0.01,0.0,19.19,31.48,-9.1,1898.45,1755695398.864846,14:09:58
192344.0,70.0,100.0,51.0,3.0,0.19,-0.06,10.32,-0.02,0.01,0.01,19.18,31.48,-9.1,1898.67,1755695398.9242802,14:09:58
192365.0,70.0,100.0,51.0,3.0,0.18,-0.04,10.31,-0.03,0.01,0.01,19.17,31.48,-9.1,1898.89,1755695398.979434,14:09:58
192387.0,70.0,100.0,51.0,3.0,0.17,-0.05,10.32,-0.03,0.01,0.0,19.17,31.49,-9.1,1899.12,1755695399.0295458,14:09:59
192408.0,70.0,100.0,51.0,3.0,0.17,-0.03,10.32,-0.02,0.01,0.0,19.18,31.49,-9.11,1899.33,1755695399.101155,14:09:59
192430.0,70.0,100.0,51.0,3.0,0.17,-0.04,10.31,-0.03,0.01,0.0,19.18,31.49,-9.11,1899.56,1755695399.149837,14:09:59
192451.0,70.0,100.0,51.0,3.0,0.17,-0.04,10.33,-0.02,0.01,0.0,19.18,31.5,-9.11,1899.78,1755695399.2006605,14:09:59
192472.0,70.0,100.0,51.0,3.0,0.17,-0.05,10.32,-0.02,0.01,0.01,19.2,31.5,-9.11,1899.99,1755695399.2534087,14:09:59
