arduino_ms,PPG_HR,PPG_O2,PPG_Conf,PPG_Status,MPU_AccelX,MPU_AccelY,MPU_AccelZ,MPU_GyroX,MPU_GyroY,MPU_GyroZ,MPU_Temp,MPU_VelX,MPU_VelY,MPU_VelZ,py_timestamp,real_time
555753.0,63.0,100.0,96.0,3.0,0.11,0.04,10.29,-0.03,0.01,0.0,19.57,464.82,-1317.68,-1924.78,1755694533.5032518,13:55:33
555774.0,63.0,100.0,96.0,3.0,0.1,0.02,10.31,-0.02,0.01,0.0,19.57,464.82,-1317.68,-1924.56,1755694533.6103222,13:55:33
555795.0,63.0,100.0,96.0,3.0,0.11,0.02,10.32,-0.02,0.01,0.0,19.58,464.83,-1317.68,-1924.34,1755694533.6903467,13:55:33
555816.0,63.0,100.0,96.0,3.0,0.09,0.04,10.28,-0.02,0.01,0.0,19.57,464.83,-1317.67,-1924.13,1755694533.756188,13:55:33
555838.0,63.0,100.0,96.0,3.0,0.1,0.04,10.3,-0.02,0.01,0.0,19.56,464.83,-1317.67,-1923.9,1755694533.8080907,13:55:33
555859.0,63.0,100.0,96.0,3.0,0.11,0.03,10.28,-0.02,0.01,0.0,19.55,464.83,-1317.67,-1923.69,1755694533.9143405,13:55:33
555882.0,63.0,100.0,96.0,3.0,0.1,0.04,10.32,-0.02,0.01,0.0,19.59,464.84,-1317.67,-1923.45,1755694534.019448,13:55:34
555903.0,63.0,100.0,96.0,3.0,0.11,0.03,10.29,-0.02,0.01,0.0,19.59,464.84,-1317.67,-1923.23,1755694534.129088,13:55:34
555924.0,63.0,100.0,96.0,3.0,0.1,0.04,10.33,-0.02,0.01,0.0,19.56,464.84,-1317.67,-1923.02,1755694534.2211962,13:55:34
555945.0,63.0,100.0,96.0,3.0,0.09,0.03,10.33,-0.02,0.01,0.0,19.57,464.84,-1317.67,-1922.8,1755694534.2775571,13:55:34
555966.0,63.0,100.0,96.0,3.0,0.11,0.03,10.28,-0.02,0.01,0.0,19.56,464.84,-1317.67,-1922.58,1755694534.3268685,13:55:34
555987.0,63.0,100.0,96.0,3.0,0.09,0.02,10.3,-0.02,0.01,0.0,19.56,464.85,-1317.67,-1922.37,1755694534.3769522,13:55:34
556008.0,63.0,100.0,96.0,3.0,0.11,0.03,10.3,-0.02,0.01,0.0,19.59,464.85,-1317.67,-1922.15,1755694534.431005,13:55:34
556029.0,63.0,100.0,96.0,3.0,0.11,0.06,10.32,-0.03,0.01,0.0,19.56,464.85,-1317.67,-1921.93,1755694534.5276165,13:55:34
556051.0,63.0,100.0,96.0,3.0,0.1,0.03,10.3,-0.02,0.01,0.0,19.57,464.85,-1317.67,-1921.71,1755694534.607338,13:55:34
556073.0,63.0,100.0,96.0,3.0,0.1,0.03,10.31,-0.02,0.01,0.0,19.56,464.85,-1317.67,-1921.48,1755694534.742478,13:55:34
556094.0,63.0,100.0,96.0,3.0,0.11,0.03,10.31,-0.02,0.01,0.0,19.57,464.86,-1317.67,-1921.26,1755694534.7921464,13:55:34
556115.0,63.0,100.0,96.0,3.0,0.11,0.04,10.32,-0.02,0.01,0.0,19.56,464.86,-1317.66,-1921.05,1755694534.8464503,13:55:34
556136.0,63.0,100.0,96.0,3.0,0.1,0.04,10.28,-0.02,0.01,0.0,19.57,464.86,-1317.66,-1920.83,1755694534.8967035,13:55:34
556159.0,63.0,100.0,96.0,3.0,0.1,0.02,10.29,-0.02,0.01,0.0,19.57,464.86,-1317.66,-1920.59,1755694534.9479356,13:55:34
556180.0,63.0,100.0,96.0,3.0,0.11,0.02,10.29,-0.02,0.01,0.0,19.57,464.87,-1317.66,-1920.38,1755694535.0403771,13:55:35
556201.0,63.0,100.0,96.0,3.0,0.11,0.01,10.32,-0.02,0.01,0.0,19.57,464.87,-1317.66,-1920.16,1755694535.1429904,13:55:35
556223.0,63.0,100.0,96.0,3.0,0.11,0.05,10.3,-0.02,0.01,0.0,19.56,464.87,-1317.66,-1919.93,1755694535.2493627,13:55:35
556244.0,63.0,100.0,96.0,3.0,0.1,0.03,10.3,-0.03,0.01,0.0,19.57,464.87,-1317.66,-1919.72,1755694535.3117747,13:55:35
556265.0,63.0,100.0,96.0,3.0,0.11,0.04,10.3,-0.02,0.01,0.0,19.57,464.87,-1317.66,-1919.5,1755694535.476077,13:55:35
556286.0,63.0,100.0,98.0,3.0,0.12,0.04,10.3,-0.02,0.01,0.01,19.59,464.88,-1317.66,-1919.29,1755694535.572373,13:55:35
556307.0,63.0,100.0,98.0,3.0,0.11,0.03,10.3,-0.02,0.01,0.0,19.58,464.88,-1317.66,-1919.07,1755694535.662535,13:55:35
556328.0,63.0,100.0,98.0,3.0,0.11,0.04,10.31,-0.02,0.01,0.0,19.57,464.88,-1317.66,-1918.85,1755694535.7192135,13:55:35
556350.0,63.0,100.0,98.0,3.0,0.12,0.05,10.3,-0.02,0.01,0.0,19.57,464.88,-1317.66,-1918.63,1755694535.7677615,13:55:35
556372.0,63.0,100.0,98.0,3.0,0.1,0.04,10.32,-0.02,0.01,0.01,19.58,464.89,-1317.66,-1918.4,1755694535.8265789,13:55:35
556393.0,63.0,100.0,98.0,3.0,0.11,0.04,10.28,-0.02,0.01,0.0,19.58,464.89,-1317.65,-1918.18,1755694535.9610574,13:55:35
556414.0,63.0,100.0,98.0,3.0,0.11,0.05,10.29,-0.02,0.01,0.0,19.57,464.89,-1317.65,-1917.97,1755694536.0642197,13:55:36
556435.0,63.0,100.0,98.0,3.0,0.11,0.03,10.29,-0.02,0.01,0.01,19.58,464.89,-1317.65,-1917.75,1755694536.1339712,13:55:36
556456.0,63.0,100.0,98.0,3.0,0.11,0.04,10.31,-0.02,0.01,0.0,19.57,464.9,-1317.65,-1917.54,1755694536.1839616,13:55:36
556478.0,63.0,100.0,98.0,3.0,0.08,0.03,10.3,-0.02,0.01,0.0,19.57,464.9,-1317.65,-1917.31,1755694536.261557,13:55:36
556499.0,63.0,99.0,98.0,3.0,0.11,0.04,10.3,-0.02,0.01,0.0,19.59,464.9,-1317.65,-1917.09,1755694536.3156955,13:55:36
556520.0,63.0,99.0,98.0,3.0,0.1,0.05,10.29,-0.02,0.01,0.01,19.57,464.9,-1317.65,-1916.88,1755694536.473313,13:55:36
556542.0,63.0,99.0,98.0,3.0,0.11,0.03,10.32,-0.02,0.01,0.0,19.59,464.9,-1317.65,-1916.65,1755694536.5246685,13:55:36
556563.0,63.0,99.0,98.0,3.0,0.11,0.03,10.32,-0.02,0.01,0.0,19.57,464.91,-1317.65,-1916.43,1755694536.680887,13:55:36
556584.0,63.0,99.0,98.0,3.0,0.11,0.04,10.3,-0.02,0.01,0.0,19.59,464.91,-1317.65,-1916.22,1755694536.7315955,13:55:36
556605.0,63.0,99.0,98.0,3.0,0.1,0.04,10.31,-0.02,0.01,0.0,19.58,464.91,-1317.65,-1916.0,1755694536.7817137,13:55:36
556626.0,63.0,99.0,98.0,3.0,0.11,0.02,10.31,-0.02,0.01,0.0,19.57,464.91,-1317.65,-1915.78,1755694536.8307962,13:55:36
556647.0,63.0,99.0,98.0,3.0,0.11,0.03,10.29,-0.02,0.01,0.0,19.58,464.92,-1317.65,-1915.57,1755694536.9875886,13:55:36
556668.0,63.0,99.0,98.0,3.0,0.11,0.03,10.3,-0.02,0.01,0.0,19.57,464.92,-1317.64,-1915.35,1755694537.0406775,13:55:37
556690.0,63.0,99.0,98.0,3.0,0.13,0.05,10.3,-0.02,0.01,0.0,19.57,464.92,-1317.64,-1915.12,1755694537.197296,13:55:37
556711.0,63.0,99.0,98.0,3.0,0.11,0.04,10.33,-0.02,0.01,0.01,19.57,464.92,-1317.64,-1914.91,1755694537.246507,13:55:37
556732.0,63.0,99.0,98.0,3.0,0.11,0.04,10.29,-0.02,0.01,0.0,19.57,464.93,-1317.64,-1914.69,1755694537.398038,13:55:37
556753.0,63.0,99.0,98.0,3.0,0.11,0.03,10.3,-0.02,0.01,0.0,19.56,464.93,-1317.64,-1914.47,1755694537.496804,13:55:37
556775.0,63.0,99.0,98.0,3.0,0.1,0.05,10.33,-0.02,0.01,0.0,19.57,464.93,-1317.64,-1914.25,1755694537.5980697,13:55:37
556796.0,63.0,99.0,98.0,3.0,0.1,0.04,10.3,-0.02,0.01,0.01,19.59,464.93,-1317.64,-1914.03,1755694537.6498775,13:55:37
556817.0,63.0,99.0,98.0,3.0,0.12,0.03,10.28,-0.03,0.01,0.0,19.57,464.94,-1317.64,-1913.82,1755694537.6998336,13:55:37
556838.0,63.0,99.0,98.0,3.0,0.11,0.04,10.29,-0.02,0.01,0.01,19.59,464.94,-1317.64,-1913.6,1755694537.764832,13:55:37
556859.0,63.0,99.0,98.0,3.0,0.1,0.03,10.28,-0.03,0.01,0.0,19.59,464.94,-1317.64,-1913.38,1755694537.9197035,13:55:37
556881.0,63.0,99.0,98.0,3.0,0.11,0.04,10.3,-0.02,0.01,0.0,19.58,464.94,-1317.64,-1913.16,1755694538.0148332,13:55:38
556902.0,63.0,99.0,98.0,3.0,0.11,0.03,10.28,-0.02,0.01,0.0,19.59,464.94,-1317.64,-1912.94,1755694538.0730743,13:55:38
556923.0,63.0,99.0,98.0,3.0,0.1,0.04,10.3,-0.02,0.01,0.0,19.58,464.95,-1317.63,-1912.72,1755694538.216062,13:55:38
556945.0,63.0,99.0,98.0,3.0,0.1,0.02,10.32,-0.02,0.01,0.0,19.57,464.95,-1317.63,-1912.5,1755694538.323633,13:55:38
556966.0,63.0,99.0,98.0,3.0,0.11,0.03,10.3,-0.02,0.01,0.0,19.57,464.95,-1317.63,-1912.28,1755694538.3751767,13:55:38
556987.0,63.0,99.0,98.0,3.0,0.09,0.04,10.31,-0.02,0.01,0.0,19.58,464.95,-1317.63,-1912.07,1755694538.4279864,13:55:38
557008.0,63.0,99.0,98.0,3.0,0.13,0.05,10.3,-0.02,0.01,0.0,19.57,464.96,-1317.63,-1911.85,1755694538.5215514,13:55:38
557029.0,63.0,99.0,98.0,3.0,0.08,0.01,10.3,-0.03,0.01,0.0,19.58,464.96,-1317.63,-1911.63,1755694538.6251361,13:55:38
557050.0,63.0,99.0,98.0,3.0,0.12,0.05,10.34,-0.02,0.01,0.0,19.58,464.96,-1317.63,-1911.42,1755694538.7489653,13:55:38
557071.0,63.0,99.0,98.0,3.0,0.11,0.0,10.3,-0.02,0.01,0.0,19.57,464.96,-1317.63,-1911.2,1755694538.839304,13:55:38
557093.0,63.0,99.0,98.0,3.0,0.1,0.06,10.29,-0.02,0.01,0.0,19.57,464.96,-1317.63,-1910.97,1755694538.8907032,13:55:38
557114.0,63.0,99.0,98.0,3.0,0.12,0.05,10.28,-0.02,0.01,0.0,19.57,464.97,-1317.63,-1910.76,1755694539.035006,13:55:39
557137.0,63.0,99.0,98.0,3.0,0.1,0.03,10.3,-0.03,0.01,0.0,19.58,464.97,-1317.63,-1910.52,1755694539.0843825,13:55:39
557158.0,63.0,99.0,98.0,3.0,0.09,0.02,10.33,-0.02,0.01,0.0,19.57,464.97,-1317.63,-1910.3,1755694539.2382505,13:55:39
557179.0,63.0,99.0,98.0,3.0,0.11,0.03,10.31,-0.02,0.01,0.0,19.56,464.97,-1317.63,-1910.09,1755694539.295425,13:55:39
557200.0,63.0,99.0,98.0,3.0,0.11,0.03,10.31,-0.02,0.01,0.0,19.58,464.98,-1317.63,-1909.87,1755694539.4440997,13:55:39
557221.0,63.0,99.0,98.0,3.0,0.1,0.03,10.3,-0.02,0.01,0.0,19.56,464.98,-1317.62,-1909.65,1755694539.5475998,13:55:39
557242.0,63.0,99.0,98.0,3.0,0.09,0.02,10.31,-0.02,0.01,0.0,19.58,464.98,-1317.62,-1909.44,1755694539.649941,13:55:39
557263.0,63.0,99.0,98.0,3.0,0.1,0.05,10.28,-0.02,0.01,0.0,19.56,464.98,-1317.62,-1909.22,1755694539.715091,13:55:39
557285.0,63.0,99.0,98.0,3.0,0.11,0.02,10.34,-0.02,0.01,0.0,19.57,464.98,-1317.62,-1908.99,1755694539.8521938,13:55:39
557306.0,63.0,99.0,98.0,3.0,0.1,0.02,10.31,-0.02,0.01,0.0,19.56,464.99,-1317.62,-1908.78,1755694539.9590132,13:55:39
557327.0,63.0,99.0,98.0,3.0,0.12,0.04,10.3,-0.02,0.01,0.0,19.57,464.99,-1317.62,-1908.56,1755694540.0555172,13:55:40
557348.0,63.0,99.0,98.0,3.0,0.1,0.01,10.31,-0.02,0.01,0.0,19.56,464.99,-1317.62,-1908.34,1755694540.1581774,13:55:40
557369.0,63.0,99.0,98.0,3.0,0.1,0.04,10.3,-0.02,0.01,0.0,19.57,464.99,-1317.62,-1908.13,1755694540.2208323,13:55:40
557391.0,63.0,99.0,98.0,3.0,0.11,0.05,10.33,-0.02,0.01,0.0,19.56,465.0,-1317.62,-1907.9,1755694540.3660634,13:55:40
557412.0,63.0,99.0,98.0,3.0,0.09,0.04,10.3,-0.02,0.01,0.0,19.57,465.0,-1317.62,-1907.68,1755694540.4672003,13:55:40
557433.0,63.0,99.0,98.0,3.0,0.11,0.02,10.27,-0.02,0.01,0.01,19.56,465.0,-1317.62,-1907.47,1755694540.51914,13:55:40
557454.0,63.0,99.0,98.0,3.0,0.1,0.03,10.28,-0.02,0.01,0.0,19.58,465.0,-1317.62,-1907.25,1755694540.5716364,13:55:40
557475.0,63.0,99.0,98.0,3.0,0.1,0.02,10.31,-0.02,0.01,0.0,19.57,465.0,-1317.62,-1907.04,1755694540.6206841,13:55:40
557497.0,63.0,99.0,98.0,3.0,0.11,0.03,10.27,-0.02,0.01,0.0,19.57,465.01,-1317.62,-1906.81,1755694540.774366,13:55:40
557518.0,63.0,99.0,98.0,3.0,0.11,0.04,10.29,-0.02,0.01,0.0,19.58,465.01,-1317.62,-1906.59,1755694540.8286948,13:55:40
557539.0,63.0,99.0,98.0,3.0,0.11,0.04,10.28,-0.03,0.01,0.0,19.57,465.01,-1317.61,-1906.38,1755694540.980395,13:55:40
557560.0,63.0,99.0,98.0,3.0,0.12,0.04,10.3,-0.02,0.01,0.0,19.59,465.01,-1317.61,-1906.16,1755694541.0385098,13:55:41
557581.0,63.0,99.0,98.0,3.0,0.11,0.03,10.32,-0.02,0.01,0.0,19.57,465.02,-1317.61,-1905.95,1755694541.0867012,13:55:41
557603.0,63.0,99.0,98.0,3.0,0.1,0.04,10.3,-0.03,0.01,0.0,19.56,465.02,-1317.61,-1905.72,1755694541.1827826,13:55:41
557624.0,63.0,99.0,98.0,3.0,0.11,0.04,10.3,-0.02,0.01,0.0,19.56,465.02,-1317.61,-1905.5,1755694541.2889097,13:55:41
557645.0,63.0,99.0,98.0,3.0,0.09,0.02,10.31,-0.02,0.01,0.0,19.56,465.02,-1317.61,-1905.29,1755694541.3939698,13:55:41
557666.0,63.0,99.0,98.0,3.0,0.12,0.05,10.3,-0.02,0.01,0.0,19.57,465.02,-1317.61,-1905.07,1755694541.447239,13:55:41
557688.0,63.0,99.0,98.0,3.0,0.09,0.03,10.3,-0.02,0.01,0.0,19.57,465.03,-1317.61,-1904.84,1755694541.505263,13:55:41
557710.0,63.0,99.0,98.0,3.0,0.1,0.04,10.32,-0.02,0.01,0.0,19.59,465.03,-1317.61,-1904.62,1755694541.5944464,13:55:41
557731.0,63.0,99.0,98.0,3.0,0.11,0.02,10.31,-0.02,0.01,0.0,19.58,465.03,-1317.61,-1904.4,1755694541.6536005,13:55:41
557753.0,63.0,99.0,98.0,3.0,0.09,0.04,10.3,-0.02,0.01,0.0,19.54,465.03,-1317.61,-1904.17,1755694541.7990353,13:55:41
557774.0,63.0,99.0,98.0,3.0,0.1,0.06,10.31,-0.02,0.01,0.0,19.58,465.04,-1317.61,-1903.96,1755694541.8641953,13:55:41
557795.0,63.0,99.0,98.0,3.0,0.1,0.04,10.3,-0.02,0.01,0.0,19.58,465.04,-1317.6,-1903.74,1755694542.0027773,13:55:42
557817.0,63.0,99.0,98.0,3.0,0.09,0.03,10.29,-0.02,0.01,0.0,19.57,465.04,-1317.6,-1903.51,1755694542.20893,13:55:42
557838.0,63.0,99.0,98.0,3.0,0.1,0.04,10.31,-0.02,0.01,0.0,19.58,465.04,-1317.6,-1903.3,1755694542.3096266,13:55:42
557859.0,63.0,99.0,98.0,3.0,0.12,0.04,10.28,-0.02,0.01,0.0,19.57,465.04,-1317.6,-1903.08,1755694542.359547,13:55:42
557880.0,63.0,99.0,98.0,3.0,0.11,0.04,10.31,-0.02,0.01,0.0,19.57,465.05,-1317.6,-1902.86,1755694542.4095483,13:55:42
557902.0,63.0,99.0,98.0,3.0,0.09,0.06,10.3,-0.02,0.01,0.0,19.56,465.05,-1317.6,-1902.64,1755694542.462519,13:55:42
557923.0,63.0,99.0,98.0,3.0,0.1,0.06,10.33,-0.02,0.01,0.0,19.57,465.05,-1317.6,-1902.42,1755694542.5179896,13:55:42
557944.0,63.0,99.0,98.0,3.0,0.11,0.03,10.31,-0.02,0.01,0.0,19.58,465.05,-1317.6,-1902.2,1755694542.6151507,13:55:42
557965.0,63.0,99.0,98.0,3.0,0.11,0.04,10.29,-0.02,0.01,0.01,19.57,465.06,-1317.6,-1901.99,1755694542.6687264,13:55:42
557986.0,63.0,99.0,98.0,3.0,0.1,0.04,10.31,-0.02,0.01,0.0,19.59,465.06,-1317.6,-1901.77,1755694542.7384193,13:55:42
558008.0,63.0,99.0,98.0,3.0,0.11,0.03,10.3,-0.02,0.01,0.0,19.59,465.06,-1317.6,-1901.55,1755694542.825498,13:55:42
558029.0,63.0,99.0,98.0,3.0,0.11,0.03,10.29,-0.02,0.01,0.0,19.58,465.06,-1317.6,-1901.33,1755694542.883792,13:55:42
558050.0,63.0,99.0,98.0,3.0,0.1,0.06,10.29,-0.02,0.01,0.0,19.58,465.06,-1317.59,-1901.11,1755694543.0265076,13:55:43
558072.0,63.0,99.0,98.0,3.0,0.11,0.03,10.3,-0.02,0.01,0.01,19.57,465.07,-1317.59,-1900.89,1755694543.0887268,13:55:43
558093.0,63.0,99.0,98.0,3.0,0.1,0.03,10.3,-0.02,0.01,0.0,19.57,465.07,-1317.59,-1900.67,1755694543.1443825,13:55:43
558115.0,63.0,99.0,98.0,3.0,0.11,0.02,10.3,-0.02,0.01,0.01,19.59,465.07,-1317.59,-1900.44,1755694543.2338073,13:55:43
558136.0,63.0,99.0,98.0,3.0,0.1,0.04,10.33,-0.02,0.01,0.0,19.58,465.07,-1317.59,-1900.23,1755694543.2927673,13:55:43
558157.0,63.0,99.0,98.0,3.0,0.11,0.03,10.29,-0.02,0.01,0.0,19.59,465.08,-1317.59,-1900.01,1755694543.3550048,13:55:43
558178.0,63.0,99.0,98.0,3.0,0.12,0.04,10.3,-0.02,0.01,0.0,19.58,465.08,-1317.59,-1899.79,1755694543.4392157,13:55:43
558200.0,63.0,99.0,98.0,3.0,0.11,0.03,10.31,-0.02,0.01,0.0,19.58,465.08,-1317.59,-1899.57,1755694543.5396702,13:55:43
558222.0,63.0,99.0,98.0,3.0,0.1,0.04,10.3,-0.02,0.01,0.0,19.57,465.08,-1317.59,-1899.34,1755694543.7602541,13:55:43
558243.0,63.0,99.0,98.0,3.0,0.09,0.03,10.33,-0.02,0.01,0.01,19.59,465.08,-1317.59,-1899.12,1755694543.8467677,13:55:43
558264.0,63.0,99.0,98.0,3.0,0.12,0.02,10.3,-0.02,0.01,0.0,19.57,465.09,-1317.59,-1898.91,1755694543.8973393,13:55:43
558286.0,63.0,99.0,98.0,3.0,0.1,0.03,10.3,-0.02,0.01,0.0,19.58,465.09,-1317.59,-1898.68,1755694543.9531963,13:55:43
558307.0,63.0,99.0,98.0,3.0,0.1,0.02,10.29,-0.02,0.01,0.0,19.58,465.09,-1317.59,-1898.47,1755694544.0503016,13:55:44
558329.0,63.0,99.0,98.0,3.0,0.12,0.03,10.3,-0.02,0.01,0.01,19.58,465.09,-1317.59,-1898.24,1755694544.1508603,13:55:44
558350.0,63.0,99.0,98.0,3.0,0.11,0.03,10.31,-0.02,0.01,0.01,19.57,465.1,-1317.58,-1898.02,1755694544.2598054,13:55:44
558371.0,63.0,99.0,98.0,3.0,0.11,0.03,10.31,-0.02,0.01,0.0,19.57,465.1,-1317.58,-1897.81,1755694544.4662213,13:55:44
558393.0,63.0,99.0,98.0,3.0,0.11,0.02,10.27,-0.02,0.01,0.0,19.58,465.1,-1317.58,-1897.58,1755694544.5173876,13:55:44
558414.0,63.0,99.0,98.0,3.0,0.1,0.03,10.3,-0.02,0.01,0.01,19.57,465.1,-1317.58,-1897.36,1755694544.665889,13:55:44
558436.0,63.0,99.0,98.0,3.0,0.12,0.03,10.29,-0.02,0.01,0.0,19.58,465.11,-1317.58,-1897.14,1755694544.7673898,13:55:44
558457.0,63.0,99.0,98.0,3.0,0.1,0.03,10.3,-0.02,0.01,0.0,19.58,465.11,-1317.58,-1896.92,1755694544.8170714,13:55:44
558478.0,63.0,99.0,98.0,3.0,0.11,0.02,10.3,-0.02,0.01,0.0,19.58,465.11,-1317.58,-1896.7,1755694544.9734561,13:55:44
558499.0,63.0,99.0,98.0,3.0,0.11,0.03,10.32,-0.02,0.01,0.0,19.57,465.11,-1317.58,-1896.49,1755694545.078905,13:55:45
558520.0,0.0,0.0,0.0,0.0,0.11,0.03,10.29,-0.02,0.01,0.0,19.58,465.11,-1317.58,-1896.27,1755694545.1290333,13:55:45
558561.0,63.0,99.0,98.0,3.0,0.12,0.05,10.31,-0.02,0.01,0.0,19.56,465.12,-1317.58,-1895.85,1755694545.2807019,13:55:45
558584.0,63.0,99.0,98.0,3.0,0.11,0.03,10.31,-0.02,0.01,0.0,19.57,465.12,-1317.58,-1895.61,1755694545.3824797,13:55:45
558605.0,63.0,99.0,98.0,3.0,0.1,0.04,10.31,-0.03,0.01,0.0,19.56,465.12,-1317.58,-1895.4,1755694545.4295425,13:55:45
558627.0,63.0,99.0,98.0,3.0,0.11,0.04,10.32,-0.02,0.01,0.0,19.56,465.13,-1317.58,-1895.17,1755694545.4853892,13:55:45
558648.0,63.0,99.0,98.0,3.0,0.13,0.02,10.3,-0.02,0.01,0.0,19.57,465.13,-1317.58,-1894.95,1755694545.588245,13:55:45
558669.0,63.0,99.0,98.0,3.0,0.12,0.04,10.29,-0.02,0.01,0.0,19.56,465.13,-1317.57,-1894.74,1755694545.6429102,13:55:45
558690.0,63.0,99.0,98.0,3.0,0.12,0.05,10.3,-0.02,0.01,0.0,19.59,465.13,-1317.57,-1894.52,1755694545.934751,13:55:45
558712.0,63.0,99.0,98.0,3.0,0.11,0.03,10.27,-0.03,0.01,0.0,19.57,465.14,-1317.57,-1894.29,1755694545.9348686,13:55:45
558734.0,63.0,99.0,98.0,3.0,0.09,0.02,10.32,-0.03,0.01,0.0,19.57,465.14,-1317.57,-1894.07,1755694546.000793,13:55:46
558755.0,63.0,99.0,98.0,3.0,0.12,0.03,10.31,-0.02,0.01,0.0,19.59,465.14,-1317.57,-1893.85,1755694546.0998657,13:55:46
558776.0,63.0,99.0,98.0,3.0,0.1,0.04,10.31,-0.02,0.01,0.0,19.57,465.14,-1317.57,-1893.63,1755694546.185759,13:55:46
558798.0,63.0,99.0,98.0,3.0,0.1,0.04,10.32,-0.02,0.01,0.0,19.58,465.15,-1317.57,-1893.41,1755694546.2466528,13:55:46
558819.0,63.0,99.0,98.0,3.0,0.11,0.03,10.32,-0.02,0.01,0.0,19.57,465.15,-1317.57,-1893.19,1755694546.4141834,13:55:46
558841.0,63.0,99.0,98.0,3.0,0.11,0.03,10.32,-0.02,0.01,0.0,19.59,465.15,-1317.57,-1892.96,1755694546.4698622,13:55:46
558862.0,63.0,99.0,98.0,3.0,0.09,0.02,10.29,-0.02,0.01,0.0,19.56,465.15,-1317.57,-1892.75,1755694546.5352936,13:55:46
558883.0,63.0,99.0,98.0,3.0,0.1,0.03,10.32,-0.02,0.01,0.0,19.57,465.15,-1317.57,-1892.53,1755694546.7163713,13:55:46
558905.0,63.0,99.0,98.0,3.0,0.11,0.05,10.28,-0.02,0.01,0.0,19.57,465.16,-1317.57,-1892.3,1755694546.812461,13:55:46
558926.0,63.0,99.0,98.0,3.0,0.1,0.05,10.29,-0.02,0.01,0.0,19.59,465.16,-1317.57,-1892.09,1755694546.8706536,13:55:46
558947.0,63.0,99.0,98.0,3.0,0.11,0.02,10.29,-0.03,0.01,0.0,19.57,465.16,-1317.56,-1891.87,1755694547.0218744,13:55:47
558968.0,63.0,99.0,98.0,3.0,0.09,0.01,10.29,-0.02,0.01,0.0,19.58,465.16,-1317.56,-1891.66,1755694547.124725,13:55:47
558989.0,63.0,99.0,98.0,3.0,0.11,0.03,10.3,-0.02,0.01,0.0,19.56,465.16,-1317.56,-1891.44,1755694547.1753669,13:55:47
559010.0,63.0,99.0,98.0,3.0,0.11,0.03,10.32,-0.02,0.01,0.0,19.56,465.17,-1317.56,-1891.22,1755694547.3272617,13:55:47
559032.0,63.0,99.0,98.0,3.0,0.09,0.03,10.3,-0.02,0.01,0.0,19.57,465.17,-1317.56,-1891.0,1755694547.3838694,13:55:47
559054.0,63.0,99.0,98.0,3.0,0.11,0.04,10.3,-0.03,0.01,0.0,19.56,465.17,-1317.56,-1890.77,1755694547.5396214,13:55:47
559076.0,63.0,99.0,98.0,3.0,0.12,0.01,10.32,-0.02,0.01,0.0,19.56,465.17,-1317.56,-1890.54,1755694547.5950272,13:55:47
559097.0,63.0,99.0,99.0,3.0,0.11,0.04,10.31,-0.02,0.01,0.0,19.57,465.18,-1317.56,-1890.33,1755694547.7364945,13:55:47
559118.0,63.0,99.0,99.0,3.0,0.1,0.02,10.32,-0.02,0.01,0.0,19.58,465.18,-1317.56,-1890.11,1755694547.787455,13:55:47
559139.0,63.0,99.0,99.0,3.0,0.1,0.04,10.29,-0.02,0.01,0.0,19.58,465.18,-1317.56,-1889.89,1755694547.9428868,13:55:47
559160.0,63.0,99.0,99.0,3.0,0.11,0.03,10.3,-0.02,0.01,0.01,19.57,465.18,-1317.56,-1889.68,1755694547.9972293,13:55:47
559181.0,63.0,99.0,99.0,3.0,0.11,0.03,10.3,-0.02,0.01,0.0,19.57,465.19,-1317.56,-1889.46,1755694548.0475445,13:55:48
559202.0,63.0,99.0,99.0,3.0,0.12,0.04,10.29,-0.02,0.01,0.0,19.59,465.19,-1317.56,-1889.24,1755694548.1445773,13:55:48
559224.0,63.0,99.0,99.0,3.0,0.11,0.04,10.32,-0.02,0.01,0.0,19.57,465.19,-1317.56,-1889.02,1755694548.2466018,13:55:48
559246.0,63.0,99.0,99.0,3.0,0.1,0.03,10.32,-0.02,0.01,0.0,19.58,465.19,-1317.56,-1888.79,1755694548.3028216,13:55:48
559267.0,63.0,99.0,99.0,3.0,0.12,0.03,10.28,-0.02,0.01,0.0,19.57,465.2,-1317.55,-1888.57,1755694548.4656725,13:55:48
559290.0,63.0,99.0,99.0,3.0,0.11,0.03,10.26,-0.02,0.01,0.0,19.57,465.2,-1317.55,-1888.34,1755694548.5142415,13:55:48
559311.0,63.0,99.0,99.0,3.0,0.09,0.04,10.29,-0.02,0.01,0.0,19.57,465.2,-1317.55,-1888.12,1755694548.5687656,13:55:48
559332.0,63.0,99.0,99.0,3.0,0.11,0.04,10.31,-0.02,0.01,0.0,19.58,465.2,-1317.55,-1887.91,1755694548.6614215,13:55:48
559353.0,63.0,99.0,99.0,3.0,0.12,0.04,10.28,-0.02,0.01,0.0,19.59,465.2,-1317.55,-1887.69,1755694548.763949,13:55:48
559374.0,63.0,99.0,99.0,3.0,0.1,0.03,10.32,-0.02,0.01,0.0,19.58,465.21,-1317.55,-1887.47,1755694548.871899,13:55:48
559395.0,63.0,99.0,99.0,3.0,0.11,0.03,10.34,-0.02,0.01,0.0,19.59,465.21,-1317.55,-1887.26,1755694548.9239192,13:55:48
559416.0,63.0,99.0,99.0,3.0,0.1,0.03,10.31,-0.02,0.01,0.0,19.58,465.21,-1317.55,-1887.04,1755694549.068217,13:55:49
559438.0,63.0,99.0,99.0,3.0,0.1,0.05,10.3,-0.02,0.01,0.01,19.59,465.21,-1317.55,-1886.81,1755694549.1714852,13:55:49
559459.0,63.0,99.0,99.0,3.0,0.11,0.02,10.3,-0.02,0.01,0.0,19.58,465.22,-1317.55,-1886.6,1755694549.2733483,13:55:49
559480.0,63.0,99.0,99.0,3.0,0.11,0.05,10.3,-0.02,0.01,0.0,19.59,465.22,-1317.55,-1886.38,1755694549.3750412,13:55:49
559501.0,63.0,99.0,99.0,3.0,0.1,0.04,10.3,-0.02,0.01,0.0,19.58,465.22,-1317.55,-1886.16,1755694549.4279182,13:55:49
559522.0,63.0,99.0,99.0,3.0,0.1,0.03,10.3,-0.02,0.01,0.01,19.6,465.22,-1317.55,-1885.95,1755694549.4786205,13:55:49
559544.0,63.0,99.0,99.0,3.0,0.09,0.04,10.3,-0.02,0.01,0.0,19.58,465.22,-1317.54,-1885.72,1755694549.527414,13:55:49
559565.0,63.0,99.0,99.0,3.0,0.1,0.04,10.31,-0.02,0.01,0.0,19.58,465.23,-1317.54,-1885.51,1755694549.5788164,13:55:49
559586.0,63.0,99.0,99.0,3.0,0.11,0.03,10.3,-0.02,0.01,0.0,19.57,465.23,-1317.54,-1885.29,1755694549.627507,13:55:49
559607.0,63.0,99.0,99.0,3.0,0.12,0.02,10.31,-0.02,0.01,0.0,19.58,465.23,-1317.54,-1885.07,1755694549.6822069,13:55:49
559628.0,63.0,99.0,99.0,3.0,0.11,0.07,10.3,-0.02,0.01,0.0,19.59,465.23,-1317.54,-1884.86,1755694549.7855098,13:55:49
559651.0,63.0,99.0,99.0,3.0,0.1,0.03,10.29,-0.02,0.01,0.0,19.58,465.23,-1317.54,-1884.62,1755694549.8913386,13:55:49
559672.0,63.0,99.0,99.0,3.0,0.11,0.03,10.3,-0.03,0.01,0.0,19.58,465.24,-1317.54,-1884.4,1755694549.9516315,13:55:49
559693.0,63.0,99.0,99.0,3.0,0.11,0.05,10.35,-0.02,0.01,0.01,19.57,465.24,-1317.54,-1884.19,1755694550.096566,13:55:50
559715.0,63.0,99.0,99.0,3.0,0.11,0.03,10.31,-0.02,0.01,0.0,19.57,465.24,-1317.54,-1883.96,1755694550.1948593,13:55:50
559737.0,63.0,99.0,99.0,3.0,0.11,0.03,10.3,-0.02,0.01,0.0,19.58,465.24,-1317.54,-1883.73,1755694550.2942138,13:55:50
559759.0,63.0,99.0,99.0,3.0,0.1,0.03,10.29,-0.02,0.01,0.01,19.57,465.25,-1317.54,-1883.51,1755694550.3993,13:55:50
559780.0,63.0,99.0,99.0,3.0,0.11,0.03,10.31,-0.02,0.01,0.01,19.57,465.25,-1317.54,-1883.29,1755694550.4509861,13:55:50
559801.0,63.0,99.0,99.0,3.0,0.09,0.05,10.31,-0.02,0.01,0.0,19.58,465.25,-1317.54,-1883.07,1755694550.6038544,13:55:50
559822.0,63.0,99.0,99.0,3.0,0.11,0.04,10.3,-0.02,0.01,0.0,19.58,465.25,-1317.53,-1882.86,1755694550.661665,13:55:50
559843.0,63.0,99.0,99.0,3.0,0.11,0.04,10.3,-0.02,0.01,0.0,19.55,465.26,-1317.53,-1882.64,1755694550.825103,13:55:50
559865.0,63.0,99.0,99.0,3.0,0.11,0.03,10.31,-0.02,0.01,0.01,19.59,465.26,-1317.53,-1882.41,1755694550.911787,13:55:50
559886.0,63.0,99.0,99.0,3.0,0.11,0.03,10.32,-0.02,0.01,0.0,19.59,465.26,-1317.53,-1882.2,1755694550.9616241,13:55:50
559907.0,63.0,99.0,99.0,3.0,0.12,0.03,10.32,-0.02,0.01,0.0,19.59,465.26,-1317.53,-1881.98,1755694551.0184064,13:55:51
559928.0,63.0,99.0,99.0,3.0,0.12,0.03,10.3,-0.02,0.01,0.0,19.58,465.26,-1317.53,-1881.76,1755694551.0737257,13:55:51
559950.0,63.0,99.0,99.0,3.0,0.12,0.04,10.28,-0.02,0.01,0.0,19.57,465.27,-1317.53,-1881.54,1755694551.2194102,13:55:51
559971.0,63.0,99.0,99.0,3.0,0.1,0.03,10.32,-0.02,0.01,0.0,19.58,465.27,-1317.53,-1881.32,1755694551.2751505,13:55:51
559992.0,63.0,99.0,99.0,3.0,0.11,0.02,10.33,-0.02,0.01,0.0,19.59,465.27,-1317.53,-1881.1,1755694551.424354,13:55:51
560013.0,63.0,99.0,99.0,3.0,0.11,0.04,10.31,-0.02,0.01,0.0,19.58,465.27,-1317.53,-1880.89,1755694551.4817402,13:55:51
560034.0,63.0,99.0,99.0,3.0,0.1,0.04,10.3,-0.02,0.01,0.0,19.58,465.28,-1317.53,-1880.67,1755694551.6305969,13:55:51
560056.0,63.0,99.0,99.0,3.0,0.11,0.04,10.3,-0.02,0.01,0.0,19.58,465.28,-1317.53,-1880.44,1755694551.7305353,13:55:51
560077.0,63.0,99.0,99.0,3.0,0.11,0.01,10.3,-0.03,0.01,0.0,19.57,465.28,-1317.53,-1880.23,1755694551.7920697,13:55:51
560098.0,63.0,99.0,99.0,3.0,0.11,0.02,10.28,-0.02,0.01,0.0,19.58,465.28,-1317.53,-1880.01,1755694551.9363291,13:55:51
560120.0,63.0,99.0,99.0,3.0,0.1,0.04,10.3,-0.02,0.01,0.0,19.57,465.29,-1317.52,-1879.79,1755694552.0444286,13:55:52
560141.0,63.0,99.0,99.0,3.0,0.1,0.03,10.3,-0.02,0.01,0.01,19.59,465.29,-1317.52,-1879.57,1755694552.1397989,13:55:52
560163.0,63.0,99.0,99.0,3.0,0.11,0.05,10.28,-0.03,0.01,0.0,19.57,465.29,-1317.52,-1879.34,1755694552.2423177,13:55:52
560184.0,63.0,99.0,99.0,3.0,0.11,0.03,10.29,-0.02,0.01,0.0,19.58,465.29,-1317.52,-1879.13,1755694552.2912333,13:55:52
560206.0,63.0,99.0,99.0,3.0,0.11,0.04,10.29,-0.02,0.01,0.0,19.57,465.3,-1317.52,-1878.9,1755694552.4510465,13:55:52
560227.0,63.0,99.0,99.0,3.0,0.1,0.03,10.3,-0.02,0.01,0.0,19.58,465.3,-1317.52,-1878.68,1755694552.5507407,13:55:52
560249.0,63.0,99.0,99.0,3.0,0.11,0.02,10.3,-0.02,0.01,0.01,19.6,465.3,-1317.52,-1878.46,1755694552.6079645,13:55:52
560271.0,63.0,99.0,99.0,3.0,0.11,0.0,10.29,-0.02,0.01,0.0,19.59,465.3,-1317.52,-1878.23,1755694552.7548418,13:55:52
560292.0,63.0,99.0,99.0,3.0,0.1,0.02,10.3,-0.02,0.01,0.0,19.59,465.3,-1317.52,-1878.02,1755694552.8587046,13:55:52
560313.0,63.0,99.0,99.0,3.0,0.11,0.05,10.31,-0.02,0.01,0.0,19.6,465.31,-1317.52,-1877.8,1755694552.9592755,13:55:52
560334.0,63.0,99.0,99.0,3.0,0.11,0.04,10.29,-0.02,0.01,0.0,19.57,465.31,-1317.52,-1877.58,1755694553.0108223,13:55:53
560356.0,63.0,99.0,99.0,3.0,0.1,0.04,10.31,-0.02,0.01,0.0,19.59,465.31,-1317.52,-1877.36,1755694553.1652935,13:55:53
560378.0,63.0,99.0,99.0,3.0,0.11,0.05,10.3,-0.02,0.01,0.0,19.58,465.31,-1317.52,-1877.13,1755694553.2166667,13:55:53
560399.0,63.0,99.0,99.0,3.0,0.1,0.03,10.29,-0.02,0.01,0.0,19.59,465.32,-1317.51,-1876.91,1755694553.3738158,13:55:53
560421.0,63.0,99.0,99.0,3.0,0.11,0.03,10.29,-0.02,0.01,0.0,19.58,465.32,-1317.51,-1876.69,1755694553.476113,13:55:53
560442.0,63.0,99.0,99.0,3.0,0.09,0.05,10.29,-0.02,0.01,0.0,19.57,465.32,-1317.51,-1876.47,1755694553.525949,13:55:53
560464.0,63.0,99.0,99.0,3.0,0.1,0.05,10.3,-0.02,0.01,0.0,19.57,465.32,-1317.51,-1876.24,1755694553.576908,13:55:53
560485.0,63.0,99.0,99.0,3.0,0.12,0.04,10.31,-0.02,0.01,0.01,19.58,465.32,-1317.51,-1876.03,1755694553.6846745,13:55:53
560506.0,63.0,99.0,99.0,3.0,0.11,0.04,10.32,-0.02,0.01,0.0,19.59,465.33,-1317.51,-1875.81,1755694553.7334473,13:55:53
560527.0,63.0,99.0,99.0,3.0,0.1,0.03,10.3,-0.02,0.01,0.01,19.58,465.33,-1317.51,-1875.59,1755694553.7811604,13:55:53
560549.0,63.0,99.0,99.0,3.0,0.09,0.04,10.26,-0.02,0.01,0.01,19.59,465.33,-1317.51,-1875.37,1755694553.88515,13:55:53
560572.0,63.0,99.0,99.0,3.0,0.1,0.03,10.32,-0.02,0.01,0.0,19.59,465.33,-1317.51,-1875.13,1755694553.9391894,13:55:53
560593.0,63.0,99.0,99.0,3.0,0.11,0.02,10.3,-0.02,0.01,0.01,19.58,465.34,-1317.51,-1874.91,1755694554.0966935,13:55:54
560614.0,63.0,99.0,99.0,3.0,0.11,0.05,10.33,-0.02,0.01,0.0,19.57,465.34,-1317.51,-1874.7,1755694554.1893585,13:55:54
560636.0,63.0,99.0,99.0,3.0,0.11,0.05,10.29,-0.02,0.01,0.0,19.59,465.34,-1317.51,-1874.47,1755694554.2496526,13:55:54
560658.0,63.0,99.0,99.0,3.0,0.11,0.02,10.28,-0.02,0.01,0.0,19.57,465.34,-1317.5,-1874.25,1755694554.392883,13:55:54
560679.0,63.0,99.0,99.0,3.0,0.11,0.05,10.33,-0.02,0.01,0.0,19.58,465.35,-1317.5,-1874.03,1755694554.4430954,13:55:54
560700.0,63.0,99.0,99.0,3.0,0.11,0.03,10.32,-0.02,0.01,0.0,19.59,465.35,-1317.5,-1873.81,1755694554.5979922,13:55:54
560721.0,63.0,99.0,99.0,3.0,0.1,0.02,10.26,-0.02,0.01,0.0,19.59,465.35,-1317.5,-1873.6,1755694554.6527832,13:55:54
560742.0,63.0,99.0,99.0,3.0,0.11,0.03,10.3,-0.02,0.01,0.01,19.59,465.35,-1317.5,-1873.38,1755694554.8070705,13:55:54
560764.0,63.0,99.0,99.0,3.0,0.11,0.03,10.3,-0.02,0.01,0.0,19.6,465.35,-1317.5,-1873.15,1755694554.861876,13:55:54
560786.0,63.0,99.0,99.0,3.0,0.11,0.03,10.29,-0.02,0.01,0.0,19.6,465.36,-1317.5,-1872.93,1755694555.0072598,13:55:55
560807.0,63.0,99.0,99.0,3.0,0.1,0.02,10.29,-0.03,0.01,0.0,19.59,465.36,-1317.5,-1872.71,1755694555.1102426,13:55:55
560829.0,63.0,99.0,99.0,3.0,0.1,0.05,10.32,-0.02,0.01,0.0,19.58,465.36,-1317.5,-1872.48,1755694555.2253988,13:55:55
560850.0,63.0,99.0,99.0,3.0,0.09,0.02,10.29,-0.02,0.01,0.0,19.59,465.36,-1317.5,-1872.27,1755694555.314841,13:55:55
560871.0,63.0,99.0,99.0,3.0,0.1,0.03,10.31,-0.02,0.01,0.01,19.59,465.37,-1317.5,-1872.05,1755694555.4180143,13:55:55
560892.0,63.0,99.0,99.0,3.0,0.11,0.04,10.35,-0.02,0.01,0.0,19.59,465.37,-1317.5,-1871.83,1755694555.5226343,13:55:55
560913.0,63.0,99.0,99.0,3.0,0.1,0.04,10.3,-0.02,0.01,0.0,19.58,465.37,-1317.5,-1871.62,1755694555.5754657,13:55:55
560934.0,63.0,99.0,99.0,3.0,0.1,0.04,10.29,-0.02,0.01,0.0,19.59,465.37,-1317.5,-1871.4,1755694555.728461,13:55:55
560955.0,63.0,99.0,99.0,3.0,0.09,0.04,10.28,-0.03,0.01,0.0,19.59,465.37,-1317.49,-1871.19,1755694555.7779121,13:55:55
560977.0,63.0,99.0,99.0,3.0,0.1,0.04,10.3,-0.02,0.01,0.0,19.59,465.38,-1317.49,-1870.96,1755694555.9300075,13:55:55
560998.0,63.0,99.0,99.0,3.0,0.12,0.01,10.29,-0.02,0.01,0.0,19.58,465.38,-1317.49,-1870.74,1755694556.0330548,13:55:56
561019.0,63.0,99.0,99.0,3.0,0.11,0.02,10.3,-0.02,0.01,0.01,19.59,465.38,-1317.49,-1870.53,1755694556.087084,13:55:56
561042.0,63.0,99.0,99.0,3.0,0.1,0.03,10.28,-0.02,0.01,0.0,19.59,465.38,-1317.49,-1870.29,1755694556.2376587,13:55:56
561063.0,63.0,99.0,99.0,3.0,0.09,0.05,10.31,-0.02,0.01,0.01,19.59,465.39,-1317.49,-1870.07,1755694556.3382602,13:55:56
561085.0,63.0,99.0,99.0,3.0,0.11,0.04,10.29,-0.02,0.01,0.0,19.6,465.39,-1317.49,-1869.85,1755694556.388457,13:55:56
561106.0,63.0,99.0,99.0,3.0,0.11,0.03,10.32,-0.02,0.01,0.0,19.6,465.39,-1317.49,-1869.63,1755694556.4366236,13:55:56
561127.0,63.0,99.0,99.0,3.0,0.11,0.04,10.32,-0.02,0.01,0.0,19.59,465.39,-1317.49,-1869.41,1755694556.4888132,13:55:56
561148.0,63.0,99.0,99.0,3.0,0.09,0.05,10.31,-0.02,0.01,0.0,19.58,465.39,-1317.49,-1869.2,1755694556.539662,13:55:56
561170.0,63.0,99.0,99.0,3.0,0.12,0.02,10.29,-0.02,0.01,0.0,19.61,465.4,-1317.49,-1868.97,1755694556.6457117,13:55:56
561192.0,63.0,99.0,99.0,3.0,0.12,0.02,10.3,-0.02,0.01,0.0,19.59,465.4,-1317.49,-1868.74,1755694556.7035105,13:55:56
561213.0,63.0,99.0,99.0,3.0,0.1,0.04,10.31,-0.02,0.01,0.0,19.59,465.4,-1317.49,-1868.53,1755694556.8512971,13:55:56
561234.0,63.0,99.0,99.0,3.0,0.09,0.02,10.31,-0.02,0.01,0.0,19.59,465.4,-1317.49,-1868.31,1755694556.9559484,13:55:56
561255.0,63.0,99.0,99.0,3.0,0.11,0.02,10.29,-0.02,0.01,0.0,19.59,465.41,-1317.48,-1868.1,1755694557.0073936,13:55:57
561277.0,63.0,99.0,99.0,3.0,0.09,0.03,10.29,-0.02,0.01,0.0,19.58,465.41,-1317.48,-1867.87,1755694557.0567534,13:55:57
561298.0,63.0,99.0,99.0,3.0,0.1,0.03,10.32,-0.02,0.01,0.0,19.59,465.41,-1317.48,-1867.65,1755694557.1590984,13:55:57
561319.0,63.0,99.0,99.0,3.0,0.11,0.05,10.29,-0.02,0.01,0.0,19.6,465.41,-1317.48,-1867.44,1755694557.2614,13:55:57
561340.0,63.0,99.0,99.0,3.0,0.11,0.04,10.31,-0.02,0.01,0.0,19.58,465.41,-1317.48,-1867.22,1755694557.3113058,13:55:57
561361.0,63.0,99.0,99.0,3.0,0.11,0.03,10.29,-0.02,0.01,0.0,19.6,465.42,-1317.48,-1867.0,1755694557.3766885,13:55:57
561383.0,63.0,99.0,99.0,3.0,0.1,0.03,10.29,-0.02,0.01,0.0,19.58,465.42,-1317.48,-1866.78,1755694557.4678106,13:55:57
561404.0,63.0,99.0,99.0,3.0,0.11,0.04,10.28,-0.02,0.01,0.0,19.59,465.42,-1317.48,-1866.56,1755694557.5689046,13:55:57
561425.0,63.0,99.0,99.0,3.0,0.12,0.03,10.3,-0.02,0.01,0.0,19.59,465.42,-1317.48,-1866.35,1755694557.625152,13:55:57
561447.0,63.0,99.0,99.0,3.0,0.11,0.01,10.29,-0.02,0.01,0.0,19.59,465.43,-1317.48,-1866.12,1755694557.7858346,13:55:57
561468.0,63.0,99.0,99.0,3.0,0.1,0.04,10.33,-0.02,0.01,0.0,19.59,465.43,-1317.48,-1865.9,1755694557.8806198,13:55:57
561489.0,63.0,99.0,99.0,3.0,0.1,0.03,10.32,-0.02,0.01,0.01,19.59,465.43,-1317.48,-1865.69,1755694557.9782152,13:55:57
561511.0,63.0,99.0,99.0,3.0,0.1,0.04,10.3,-0.02,0.01,0.0,19.58,465.43,-1317.48,-1865.46,1755694558.0783179,13:55:58
561532.0,63.0,99.0,99.0,3.0,0.1,0.03,10.31,-0.02,0.01,0.0,19.59,465.43,-1317.48,-1865.24,1755694558.1381853,13:55:58
561553.0,63.0,99.0,99.0,3.0,0.11,0.02,10.32,-0.02,0.01,0.0,19.59,465.44,-1317.48,-1865.03,1755694558.2827497,13:55:58
561575.0,63.0,99.0,99.0,3.0,0.1,0.04,10.3,-0.02,0.01,0.0,19.59,465.44,-1317.47,-1864.8,1755694558.386147,13:55:58
561597.0,63.0,99.0,99.0,3.0,0.1,0.03,10.29,-0.02,0.01,0.01,19.57,465.44,-1317.47,-1864.57,1755694558.441645,13:55:58
561618.0,63.0,99.0,99.0,3.0,0.12,0.03,10.31,-0.02,0.01,0.0,19.59,465.44,-1317.47,-1864.36,1755694558.5200548,13:55:58
561640.0,63.0,99.0,99.0,3.0,0.11,0.02,10.29,-0.02,0.01,0.0,19.57,465.45,-1317.47,-1864.13,1755694558.572301,13:55:58
561661.0,63.0,99.0,99.0,3.0,0.1,0.03,10.3,-0.02,0.01,0.01,19.59,465.45,-1317.47,-1863.91,1755694558.6289587,13:55:58
561683.0,63.0,99.0,99.0,3.0,0.12,0.05,10.3,-0.02,0.01,0.0,19.59,465.45,-1317.47,-1863.69,1755694558.8024983,13:55:58
561705.0,63.0,99.0,99.0,3.0,0.1,0.02,10.31,-0.02,0.01,0.0,19.58,465.45,-1317.47,-1863.46,1755694558.9108508,13:55:58
561726.0,63.0,99.0,99.0,3.0,0.12,0.03,10.3,-0.02,0.01,0.0,19.56,465.46,-1317.47,-1863.24,1755694559.0029237,13:55:59
561747.0,63.0,99.0,99.0,3.0,0.11,0.03,10.3,-0.02,0.01,0.0,19.59,465.46,-1317.47,-1863.03,1755694559.0540135,13:55:59
561768.0,0.0,0.0,0.0,0.0,0.1,0.05,10.32,-0.02,0.01,0.0,19.58,465.46,-1317.47,-1862.81,1755694559.2179632,13:55:59
561809.0,63.0,99.0,99.0,3.0,0.11,0.04,10.31,-0.02,0.01,0.0,19.58,465.46,-1317.47,-1862.39,1755694559.31092,13:55:59
561830.0,63.0,99.0,99.0,3.0,0.09,0.04,10.3,-0.02,0.01,0.0,19.59,465.47,-1317.47,-1862.17,1755694559.3628013,13:55:59
561851.0,63.0,99.0,99.0,3.0,0.1,0.04,10.29,-0.02,0.01,0.0,19.58,465.47,-1317.46,-1861.95,1755694559.5187085,13:55:59
561872.0,63.0,99.0,99.0,3.0,0.11,0.02,10.31,-0.02,0.01,0.0,19.58,465.47,-1317.46,-1861.74,1755694559.5727837,13:55:59
561894.0,63.0,99.0,99.0,3.0,0.1,0.02,10.29,-0.02,0.01,0.0,19.59,465.47,-1317.46,-1861.51,1755694559.7262428,13:55:59
561915.0,63.0,99.0,99.0,3.0,0.1,0.03,10.3,-0.02,0.01,0.0,19.58,465.47,-1317.46,-1861.3,1755694559.8214037,13:55:59
561936.0,63.0,99.0,99.0,3.0,0.11,0.03,10.32,-0.02,0.01,0.0,19.59,465.48,-1317.46,-1861.08,1755694559.9260104,13:55:59
561957.0,63.0,99.0,99.0,3.0,0.11,0.04,10.31,-0.02,0.01,0.0,19.57,465.48,-1317.46,-1860.86,1755694560.0257788,13:56:00
561978.0,63.0,99.0,99.0,3.0,0.11,0.04,10.29,-0.02,0.01,0.0,19.57,465.48,-1317.46,-1860.65,1755694560.1272438,13:56:00
561999.0,63.0,99.0,99.0,3.0,0.11,0.04,10.31,-0.02,0.01,0.01,19.59,465.48,-1317.46,-1860.43,1755694560.2337325,13:56:00
562020.0,63.0,99.0,99.0,3.0,0.11,0.04,10.3,-0.03,0.01,0.0,19.57,465.49,-1317.46,-1860.21,1755694560.282438,13:56:00
562041.0,63.0,99.0,99.0,3.0,0.11,0.03,10.31,-0.02,0.01,0.0,19.57,465.49,-1317.46,-1860.0,1755694560.33123,13:56:00
562062.0,63.0,99.0,99.0,3.0,0.11,0.04,10.28,-0.02,0.01,0.01,19.59,465.49,-1317.46,-1859.78,1755694560.4354951,13:56:00
562083.0,63.0,99.0,99.0,3.0,0.11,0.04,10.3,-0.02,0.01,0.0,19.6,465.49,-1317.46,-1859.56,1755694560.4879317,13:56:00
562105.0,63.0,99.0,99.0,3.0,0.1,0.04,10.32,-0.02,0.01,0.0,19.6,465.49,-1317.46,-1859.34,1755694560.6499279,13:56:00
562126.0,63.0,99.0,99.0,3.0,0.1,0.03,10.3,-0.02,0.01,0.0,19.6,465.5,-1317.45,-1859.12,1755694560.7431035,13:56:00
562147.0,63.0,99.0,99.0,3.0,0.11,0.04,10.3,-0.02,0.01,0.0,19.6,465.5,-1317.45,-1858.91,1755694560.801898,13:56:00
562168.0,63.0,99.0,99.0,3.0,0.11,0.04,10.32,-0.02,0.01,0.01,19.6,465.5,-1317.45,-1858.69,1755694560.9561799,13:56:00
562189.0,63.0,99.0,99.0,3.0,0.11,0.03,10.3,-0.02,0.01,0.0,19.58,465.5,-1317.45,-1858.47,1755694561.0523696,13:56:01
562211.0,63.0,99.0,99.0,3.0,0.11,0.02,10.3,-0.03,0.01,0.0,19.58,465.51,-1317.45,-1858.25,1755694561.157899,13:56:01
562232.0,63.0,99.0,99.0,3.0,0.11,0.05,10.33,-0.02,0.01,0.0,19.58,465.51,-1317.45,-1858.03,1755694561.2127626,13:56:01
562253.0,63.0,99.0,99.0,3.0,0.11,0.05,10.32,-0.02,0.01,0.0,19.57,465.51,-1317.45,-1857.81,1755694561.3574102,13:56:01
562274.0,63.0,99.0,99.0,3.0,0.11,0.04,10.3,-0.02,0.01,0.0,19.57,465.51,-1317.45,-1857.6,1755694561.458806,13:56:01
562296.0,63.0,99.0,99.0,3.0,0.13,0.02,10.29,-0.02,0.01,0.0,19.59,465.52,-1317.45,-1857.37,1755694561.5614367,13:56:01
562318.0,63.0,99.0,99.0,3.0,0.12,0.01,10.29,-0.02,0.01,0.0,19.58,465.52,-1317.45,-1857.14,1755694561.6159542,13:56:01
562339.0,63.0,99.0,99.0,3.0,0.11,0.02,10.29,-0.02,0.01,0.0,19.59,465.52,-1317.45,-1856.93,1755694561.7670684,13:56:01
562361.0,63.0,99.0,99.0,3.0,0.11,0.02,10.32,-0.02,0.01,0.0,19.6,465.52,-1317.45,-1856.7,1755694561.8224635,13:56:01
562382.0,63.0,99.0,99.0,3.0,0.1,0.03,10.31,-0.02,0.01,0.0,19.58,465.53,-1317.45,-1856.48,1755694561.9773448,13:56:01
562403.0,63.0,99.0,99.0,3.0,0.11,0.04,10.3,-0.02,0.01,0.0,19.59,465.53,-1317.45,-1856.27,1755694562.0725803,13:56:02
562424.0,63.0,99.0,99.0,3.0,0.11,0.03,10.29,-0.03,0.01,0.0,19.58,465.53,-1317.44,-1856.05,1755694562.1770027,13:56:02
562445.0,63.0,99.0,99.0,3.0,0.11,0.03,10.32,-0.02,0.01,0.0,19.59,465.53,-1317.44,-1855.83,1755694562.229864,13:56:02
562466.0,63.0,99.0,99.0,3.0,0.11,0.03,10.28,-0.02,0.01,0.0,19.58,465.53,-1317.44,-1855.62,1755694562.383274,13:56:02
562487.0,63.0,99.0,99.0,3.0,0.09,0.02,10.31,-0.02,0.01,0.0,19.59,465.54,-1317.44,-1855.4,1755694562.437383,13:56:02
562509.0,63.0,99.0,99.0,3.0,0.12,0.04,10.3,-0.02,0.01,0.0,19.58,465.54,-1317.44,-1855.18,1755694562.5838912,13:56:02
562530.0,63.0,99.0,99.0,3.0,0.11,0.03,10.27,-0.02,0.01,0.0,19.59,465.54,-1317.44,-1854.96,1755694562.6869824,13:56:02
562551.0,63.0,99.0,99.0,3.0,0.12,0.03,10.3,-0.02,0.01,0.0,19.59,465.54,-1317.44,-1854.74,1755694562.7437856,13:56:02
562573.0,63.0,99.0,99.0,3.0,0.12,0.03,10.3,-0.02,0.01,0.0,19.6,465.55,-1317.44,-1854.52,1755694562.7970772,13:56:02
562594.0,63.0,99.0,99.0,3.0,0.14,0.02,10.29,-0.02,0.01,0.0,19.58,465.55,-1317.44,-1854.3,1755694562.8531241,13:56:02
562615.0,63.0,99.0,99.0,3.0,0.11,0.01,10.31,-0.03,0.01,0.0,19.59,465.55,-1317.44,-1854.08,1755694562.9949872,13:56:02
562636.0,63.0,99.0,99.0,3.0,0.11,0.02,10.31,-0.02,0.01,0.01,19.59,465.55,-1317.44,-1853.87,1755694563.0971427,13:56:03
562657.0,63.0,99.0,99.0,3.0,0.11,0.04,10.3,-0.02,0.01,0.01,19.59,465.56,-1317.44,-1853.65,1755694563.1504297,13:56:03
562678.0,63.0,99.0,99.0,3.0,0.11,0.02,10.3,-0.02,0.01,0.01,19.6,465.56,-1317.44,-1853.44,1755694563.3030531,13:56:03
562700.0,63.0,99.0,99.0,3.0,0.11,0.04,10.33,-0.02,0.01,0.0,19.59,465.56,-1317.44,-1853.21,1755694563.3538566,13:56:03
562723.0,63.0,99.0,99.0,3.0,0.1,0.02,10.28,-0.02,0.01,0.01,19.59,465.56,-1317.44,-1852.97,1755694563.5068228,13:56:03
562744.0,63.0,99.0,99.0,3.0,0.1,0.01,10.27,-0.02,0.01,0.0,19.58,465.57,-1317.44,-1852.76,1755694563.6114597,13:56:03
562766.0,63.0,99.0,99.0,3.0,0.11,0.04,10.28,-0.02,0.01,0.0,19.59,465.57,-1317.44,-1852.53,1755694563.7160747,13:56:03
562787.0,63.0,99.0,99.0,3.0,0.11,0.03,10.3,-0.02,0.01,0.0,19.57,465.57,-1317.43,-1852.31,1755694563.7784493,13:56:03
562809.0,63.0,99.0,99.0,3.0,0.11,0.03,10.3,-0.02,0.01,0.01,19.6,465.57,-1317.43,-1852.09,1755694563.9177651,13:56:03
562831.0,63.0,99.0,99.0,3.0,0.11,0.02,10.29,-0.02,0.01,0.0,19.58,465.57,-1317.43,-1851.86,1755694563.9698482,13:56:03
562852.0,63.0,99.0,99.0,3.0,0.12,0.03,10.31,-0.02,0.01,0.0,19.59,465.58,-1317.43,-1851.64,1755694564.1372132,13:56:04
562874.0,63.0,99.0,99.0,3.0,0.1,0.04,10.31,-0.03,0.01,0.0,19.59,465.58,-1317.43,-1851.42,1755694564.2249703,13:56:04
562895.0,63.0,99.0,99.0,3.0,0.11,0.02,10.32,-0.03,0.01,0.0,19.59,465.58,-1317.43,-1851.2,1755694564.2933753,13:56:04
562917.0,63.0,99.0,99.0,3.0,0.09,0.03,10.3,-0.02,0.01,0.01,19.59,465.58,-1317.43,-1850.97,1755694564.3549852,13:56:04
562938.0,63.0,99.0,99.0,3.0,0.1,0.03,10.31,-0.02,0.01,0.0,19.59,465.59,-1317.43,-1850.76,1755694564.5443916,13:56:04
562959.0,63.0,99.0,99.0,3.0,0.1,0.04,10.31,-0.02,0.01,0.0,19.59,465.59,-1317.43,-1850.54,1755694564.6342828,13:56:04
562981.0,63.0,99.0,99.0,3.0,0.11,0.03,10.29,-0.02,0.01,0.0,19.59,465.59,-1317.43,-1850.31,1755694564.685041,13:56:04
563002.0,63.0,99.0,99.0,3.0,0.11,0.01,10.3,-0.03,0.01,0.01,19.6,465.59,-1317.43,-1850.1,1755694564.7339685,13:56:04
563024.0,63.0,99.0,99.0,3.0,0.12,0.0,10.31,-0.02,0.01,0.0,19.6,465.6,-1317.43,-1849.87,1755694564.7854555,13:56:04
563045.0,63.0,99.0,99.0,3.0,0.11,0.06,10.31,-0.03,0.01,0.0,19.58,465.6,-1317.43,-1849.65,1755694564.837687,13:56:04
563066.0,63.0,99.0,99.0,3.0,0.11,0.03,10.27,-0.02,0.01,0.0,19.58,465.6,-1317.43,-1849.44,1755694564.904136,13:56:04
563087.0,63.0,99.0,99.0,3.0,0.11,0.02,10.3,-0.02,0.01,0.0,19.58,465.6,-1317.43,-1849.22,1755694565.0433419,13:56:05
563109.0,63.0,99.0,99.0,3.0,0.08,0.03,10.31,-0.02,0.01,0.0,19.58,465.6,-1317.43,-1849.0,1755694565.10207,13:56:05
563132.0,63.0,99.0,99.0,3.0,0.12,0.03,10.3,-0.02,0.01,0.0,19.59,465.61,-1317.42,-1848.76,1755694565.250214,13:56:05
563153.0,63.0,99.0,99.0,3.0,0.1,0.02,10.29,-0.03,0.01,0.0,19.59,465.61,-1317.42,-1848.54,1755694565.352343,13:56:05
563174.0,63.0,99.0,99.0,3.0,0.11,0.05,10.29,-0.02,0.01,0.0,19.59,465.61,-1317.42,-1848.33,1755694565.4049618,13:56:05
563195.0,63.0,99.0,99.0,3.0,0.13,0.03,10.3,-0.02,0.01,0.0,19.59,465.61,-1317.42,-1848.11,1755694565.5570204,13:56:05
563217.0,63.0,99.0,99.0,3.0,0.1,0.03,10.31,-0.02,0.01,0.0,19.59,465.62,-1317.42,-1847.88,1755694565.6145833,13:56:05
563239.0,63.0,99.0,99.0,3.0,0.11,0.03,10.3,-0.02,0.01,0.0,19.59,465.62,-1317.42,-1847.66,1755694565.7639084,13:56:05
563260.0,63.0,99.0,99.0,3.0,0.11,0.03,10.3,-0.02,0.01,0.0,19.59,465.62,-1317.42,-1847.44,1755694565.8605478,13:56:05
563282.0,63.0,99.0,99.0,3.0,0.11,0.02,10.3,-0.02,0.01,0.0,19.59,465.62,-1317.42,-1847.21,1755694565.9721909,13:56:05
563303.0,63.0,99.0,99.0,3.0,0.12,0.02,10.32,-0.02,0.01,0.0,19.59,465.63,-1317.42,-1847.0,1755694566.0697868,13:56:06
563324.0,63.0,99.0,99.0,3.0,0.13,0.04,10.29,-0.02,0.01,0.0,19.6,465.63,-1317.42,-1846.78,1755694566.1684773,13:56:06
563345.0,63.0,99.0,99.0,3.0,0.12,0.03,10.29,-0.02,0.01,0.0,19.59,465.63,-1317.42,-1846.56,1755694566.272345,13:56:06
563366.0,63.0,99.0,99.0,3.0,0.11,0.02,10.31,-0.02,0.01,0.0,19.57,465.63,-1317.42,-1846.35,1755694566.322279,13:56:06
563387.0,63.0,99.0,99.0,3.0,0.12,0.04,10.3,-0.03,0.01,0.0,19.6,465.64,-1317.42,-1846.13,1755694566.4839113,13:56:06
563408.0,63.0,99.0,99.0,3.0,0.11,0.02,10.3,-0.02,0.01,0.0,19.58,465.64,-1317.42,-1845.92,1755694566.5346565,13:56:06
563431.0,63.0,99.0,99.0,3.0,0.1,0.03,10.3,-0.02,0.01,0.0,19.59,465.64,-1317.42,-1845.68,1755694566.5845966,13:56:06
563452.0,63.0,99.0,99.0,3.0,0.11,0.04,10.33,-0.02,0.01,0.0,19.59,465.64,-1317.41,-1845.46,1755694566.684749,13:56:06
563473.0,63.0,99.0,99.0,3.0,0.11,0.04,10.28,-0.02,0.01,0.0,19.59,465.65,-1317.41,-1845.25,1755694566.8885834,13:56:06
563496.0,63.0,99.0,99.0,3.0,0.1,0.02,10.29,-0.02,0.01,0.0,19.58,465.65,-1317.41,-1845.01,1755694566.9408715,13:56:06
563518.0,63.0,99.0,99.0,3.0,0.1,0.04,10.31,-0.02,0.01,0.01,19.59,465.65,-1317.41,-1844.78,1755694567.092162,13:56:07
563540.0,63.0,99.0,99.0,3.0,0.11,0.04,10.31,-0.02,0.01,0.0,19.58,465.65,-1317.41,-1844.56,1755694567.1479614,13:56:07
563561.0,63.0,99.0,99.0,3.0,0.11,0.03,10.32,-0.02,0.01,0.0,19.6,465.65,-1317.41,-1844.34,1755694567.2967722,13:56:07
563582.0,63.0,99.0,99.0,3.0,0.1,0.02,10.31,-0.02,0.01,0.0,19.62,465.66,-1317.41,-1844.12,1755694567.400004,13:56:07
563603.0,63.0,99.0,99.0,3.0,0.12,0.03,10.3,-0.02,0.01,0.01,19.6,465.66,-1317.41,-1843.91,1755694567.50117,13:56:07
563624.0,63.0,99.0,99.0,3.0,0.11,0.06,10.3,-0.02,0.01,0.0,19.59,465.66,-1317.41,-1843.69,1755694567.603049,13:56:07
563646.0,63.0,99.0,99.0,3.0,0.11,0.03,10.3,-0.02,0.01,0.01,19.6,465.66,-1317.41,-1843.46,1755694567.7038565,13:56:07
563667.0,63.0,99.0,99.0,3.0,0.11,0.04,10.28,-0.02,0.01,0.0,19.6,465.67,-1317.41,-1843.25,1755694567.7605636,13:56:07
563688.0,63.0,99.0,99.0,3.0,0.11,0.01,10.28,-0.02,0.01,0.01,19.59,465.67,-1317.41,-1843.03,1755694567.8087277,13:56:07
563709.0,63.0,99.0,99.0,3.0,0.11,0.02,10.3,-0.02,0.01,0.01,19.59,465.67,-1317.41,-1842.81,1755694567.9149966,13:56:07
563731.0,63.0,99.0,99.0,3.0,0.1,0.04,10.3,-0.02,0.01,0.0,19.58,465.67,-1317.4,-1842.59,1755694567.9650126,13:56:07
563753.0,63.0,99.0,99.0,3.0,0.12,0.03,10.29,-0.02,0.01,0.0,19.58,465.68,-1317.4,-1842.36,1755694568.0140836,13:56:08
563774.0,63.0,99.0,99.0,3.0,0.11,0.06,10.31,-0.03,0.01,0.0,19.57,465.68,-1317.4,-1842.15,1755694568.1154583,13:56:08
563795.0,63.0,99.0,99.0,3.0,0.11,0.03,10.33,-0.02,0.01,0.01,19.59,465.68,-1317.4,-1841.93,1755694568.2243712,13:56:08
563816.0,63.0,99.0,99.0,3.0,0.11,0.04,10.28,-0.02,0.01,0.0,19.59,465.68,-1317.4,-1841.71,1755694568.2744741,13:56:08
563838.0,63.0,99.0,99.0,3.0,0.13,0.04,10.3,-0.02,0.01,0.0,19.61,465.69,-1317.4,-1841.49,1755694568.3225114,13:56:08
563860.0,63.0,99.0,99.0,3.0,0.12,0.04,10.31,-0.02,0.01,0.0,19.58,465.69,-1317.4,-1841.26,1755694568.428512,13:56:08
563881.0,63.0,99.0,99.0,3.0,0.12,0.01,10.31,-0.02,0.01,0.0,19.6,465.69,-1317.4,-1841.04,1755694568.481166,13:56:08
563902.0,63.0,99.0,99.0,3.0,0.12,0.04,10.3,-0.03,0.01,0.0,19.58,465.69,-1317.4,-1840.83,1755694568.625486,13:56:08
563923.0,63.0,99.0,99.0,3.0,0.11,0.02,10.3,-0.02,0.01,0.0,19.58,465.7,-1317.4,-1840.61,1755694568.6820722,13:56:08
563945.0,63.0,99.0,99.0,3.0,0.11,0.03,10.29,-0.02,0.01,0.01,19.58,465.7,-1317.4,-1840.38,1755694568.8324509,13:56:08
563966.0,63.0,99.0,99.0,3.0,0.09,0.05,10.3,-0.02,0.01,0.0,19.58,465.7,-1317.4,-1840.17,1755694568.935859,13:56:08
563987.0,63.0,99.0,99.0,3.0,0.1,0.04,10.3,-0.02,0.01,0.0,19.59,465.7,-1317.4,-1839.95,1755694569.0370321,13:56:09
564008.0,63.0,99.0,99.0,3.0,0.11,0.05,10.3,-0.02,0.01,0.0,19.58,465.7,-1317.39,-1839.73,1755694569.140652,13:56:09
564030.0,63.0,99.0,99.0,3.0,0.12,0.02,10.27,-0.02,0.01,0.0,19.57,465.71,-1317.39,-1839.51,1755694569.1930287,13:56:09
564052.0,63.0,99.0,99.0,3.0,0.11,0.02,10.3,-0.03,0.01,0.0,19.59,465.71,-1317.39,-1839.28,1755694569.2495048,13:56:09
564073.0,63.0,99.0,99.0,3.0,0.1,0.03,10.31,-0.02,0.01,0.0,19.58,465.71,-1317.39,-1839.07,1755694569.343075,13:56:09
564094.0,63.0,99.0,99.0,3.0,0.1,0.04,10.31,-0.02,0.01,0.0,19.59,465.71,-1317.39,-1838.85,1755694569.4455113,13:56:09
564116.0,63.0,99.0,99.0,3.0,0.13,0.02,10.29,-0.03,0.01,0.0,19.59,465.72,-1317.39,-1838.62,1755694569.4955904,13:56:09
564137.0,63.0,99.0,99.0,3.0,0.11,0.05,10.28,-0.02,0.01,0.0,19.59,465.72,-1317.39,-1838.41,1755694569.6501484,13:56:09
564159.0,63.0,99.0,99.0,3.0,0.11,0.04,10.3,-0.02,0.01,0.0,19.59,465.72,-1317.39,-1838.18,1755694569.7046783,13:56:09
564180.0,63.0,99.0,99.0,3.0,0.1,0.05,10.31,-0.02,0.01,0.0,19.59,465.72,-1317.39,-1837.96,1755694569.8567011,13:56:09
564202.0,63.0,99.0,99.0,3.0,0.09,0.02,10.3,-0.02,0.01,0.0,19.59,465.73,-1317.39,-1837.74,1755694569.9082806,13:56:09
564223.0,63.0,99.0,99.0,3.0,0.11,0.05,10.31,-0.02,0.01,0.01,19.59,465.73,-1317.39,-1837.52,1755694570.061562,13:56:10
564244.0,63.0,99.0,99.0,3.0,0.11,0.03,10.28,-0.02,0.01,0.0,19.59,465.73,-1317.39,-1837.3,1755694570.1139045,13:56:10
564266.0,63.0,99.0,99.0,3.0,0.11,0.03,10.3,-0.02,0.01,0.0,19.58,465.73,-1317.39,-1837.08,1755694570.2676883,13:56:10
564287.0,63.0,99.0,99.0,3.0,0.1,0.03,10.33,-0.02,0.01,0.0,19.58,465.73,-1317.39,-1836.86,1755694570.3729823,13:56:10
564308.0,63.0,99.0,99.0,3.0,0.09,0.04,10.31,-0.02,0.01,0.0,19.59,465.74,-1317.38,-1836.65,1755694570.4714234,13:56:10
564329.0,63.0,99.0,99.0,3.0,0.11,0.03,10.32,-0.02,0.01,0.01,19.59,465.74,-1317.38,-1836.43,1755694570.528433,13:56:10
564351.0,63.0,99.0,99.0,3.0,0.11,0.03,10.3,-0.02,0.01,0.0,19.59,465.74,-1317.38,-1836.2,1755694570.5784395,13:56:10
564372.0,63.0,99.0,99.0,3.0,0.1,0.04,10.33,-0.02,0.01,0.0,19.57,465.74,-1317.38,-1835.99,1755694570.6776447,13:56:10
564393.0,63.0,99.0,99.0,3.0,0.11,0.04,10.31,-0.02,0.01,0.0,19.59,465.75,-1317.38,-1835.77,1755694570.778678,13:56:10
564415.0,63.0,99.0,99.0,3.0,0.12,0.02,10.3,-0.03,0.01,0.0,19.6,465.75,-1317.38,-1835.54,1755694570.8295004,13:56:10
564436.0,63.0,99.0,99.0,3.0,0.11,0.03,10.28,-0.02,0.01,0.0,19.59,465.75,-1317.38,-1835.33,1755694570.893493,13:56:10
564458.0,63.0,99.0,99.0,3.0,0.1,0.03,10.32,-0.02,0.01,0.01,19.58,465.75,-1317.38,-1835.1,1755694570.950444,13:56:10
564479.0,63.0,99.0,99.0,3.0,0.11,0.04,10.3,-0.02,0.01,0.0,19.57,465.75,-1317.38,-1834.88,1755694571.0842783,13:56:11
564500.0,63.0,99.0,99.0,3.0,0.12,0.04,10.29,-0.03,0.01,0.0,19.58,465.76,-1317.38,-1834.67,1755694571.1865256,13:56:11
564521.0,63.0,99.0,99.0,3.0,0.12,0.02,10.32,-0.02,0.01,0.0,19.57,465.76,-1317.38,-1834.45,1755694571.236775,13:56:11
564543.0,63.0,99.0,99.0,3.0,0.11,0.04,10.3,-0.02,0.01,0.0,19.58,465.76,-1317.38,-1834.22,1755694571.287311,13:56:11
564565.0,63.0,99.0,99.0,3.0,0.12,0.02,10.3,-0.02,0.01,0.01,19.58,465.76,-1317.38,-1834.0,1755694571.396907,13:56:11
564586.0,63.0,99.0,99.0,3.0,0.12,0.03,10.29,-0.02,0.01,0.0,19.6,465.77,-1317.37,-1833.78,1755694571.44828,13:56:11
564607.0,63.0,99.0,99.0,3.0,0.12,0.03,10.32,-0.02,0.01,0.0,19.6,465.77,-1317.37,-1833.56,1755694571.5966308,13:56:11
564629.0,63.0,99.0,99.0,3.0,0.11,0.02,10.32,-0.02,0.01,0.0,19.59,465.77,-1317.37,-1833.34,1755694571.7020626,13:56:11
564651.0,63.0,99.0,99.0,3.0,0.13,0.02,10.32,-0.02,0.01,0.0,19.58,465.78,-1317.37,-1833.11,1755694571.7515225,13:56:11
564673.0,63.0,99.0,99.0,3.0,0.11,0.04,10.3,-0.02,0.01,0.0,19.59,465.78,-1317.37,-1832.88,1755694571.8022518,13:56:11
564694.0,63.0,99.0,99.0,3.0,0.11,0.03,10.3,-0.02,0.01,0.0,19.58,465.78,-1317.37,-1832.67,1755694571.8607585,13:56:11
564715.0,63.0,99.0,99.0,3.0,0.11,0.03,10.3,-0.02,0.01,0.01,19.59,465.78,-1317.37,-1832.45,1755694572.017265,13:56:12
564736.0,63.0,99.0,99.0,3.0,0.11,0.05,10.3,-0.02,0.01,0.0,19.59,465.78,-1317.37,-1832.23,1755694572.0786357,13:56:12
564758.0,63.0,99.0,99.0,3.0,0.09,0.04,10.3,-0.02,0.01,0.0,19.6,465.79,-1317.37,-1832.01,1755694572.1431959,13:56:12
564780.0,63.0,99.0,99.0,3.0,0.11,0.04,10.3,-0.02,0.01,0.0,19.6,465.79,-1317.37,-1831.78,1755694572.314137,13:56:12
564801.0,63.0,99.0,99.0,3.0,0.1,0.03,10.3,-0.02,0.01,0.0,19.59,465.79,-1317.37,-1831.57,1755694572.417646,13:56:12
564822.0,63.0,99.0,99.0,3.0,0.11,0.03,10.3,-0.03,0.01,0.01,19.59,465.79,-1317.37,-1831.35,1755694572.521867,13:56:12
564843.0,63.0,99.0,99.0,3.0,0.11,0.03,10.29,-0.02,0.01,0.01,19.61,465.8,-1317.37,-1831.13,1755694572.5799115,13:56:12
564865.0,63.0,99.0,99.0,3.0,0.11,0.04,10.3,-0.02,0.01,0.0,19.58,465.8,-1317.37,-1830.91,1755694572.722366,13:56:12
564886.0,63.0,99.0,99.0,3.0,0.1,0.05,10.3,-0.02,0.01,0.0,19.6,465.8,-1317.36,-1830.69,1755694572.8242598,13:56:12
564907.0,63.0,99.0,99.0,3.0,0.11,0.04,10.28,-0.02,0.01,0.0,19.6,465.8,-1317.36,-1830.47,1755694572.878664,13:56:12
564929.0,63.0,99.0,99.0,3.0,0.1,0.01,10.28,-0.02,0.01,0.0,19.61,465.8,-1317.36,-1830.25,1755694573.1300192,13:56:13
564950.0,63.0,99.0,99.0,3.0,0.1,0.02,10.3,-0.02,0.01,0.0,19.59,465.81,-1317.36,-1830.03,1755694573.185359,13:56:13
564971.0,63.0,99.0,99.0,3.0,0.11,0.04,10.28,-0.02,0.01,0.0,19.58,465.81,-1317.36,-1829.82,1755694573.2507524,13:56:13
564994.0,0.0,0.0,0.0,0.0,0.11,0.03,10.3,-0.02,0.01,0.0,19.58,465.81,-1317.36,-1829.58,1755694573.344138,13:56:13
565034.0,63.0,99.0,99.0,3.0,0.11,0.03,10.31,-0.02,0.01,0.0,19.57,465.82,-1317.36,-1829.17,1755694573.3922153,13:56:13
565056.0,63.0,99.0,99.0,3.0,0.11,0.04,10.31,-0.02,0.01,0.0,19.59,465.82,-1317.36,-1828.94,1755694573.4495416,13:56:13
565078.0,63.0,99.0,99.0,3.0,0.11,0.02,10.29,-0.02,0.01,0.0,19.59,465.82,-1317.36,-1828.71,1755694573.5414379,13:56:13
565099.0,63.0,99.0,99.0,3.0,0.11,0.04,10.3,-0.02,0.01,0.0,19.59,465.82,-1317.36,-1828.5,1755694573.6443963,13:56:13
565121.0,63.0,99.0,99.0,3.0,0.11,0.04,10.31,-0.02,0.01,0.0,19.59,465.83,-1317.36,-1828.27,1755694573.7506466,13:56:13
565142.0,63.0,99.0,99.0,3.0,0.1,0.03,10.33,-0.02,0.01,0.0,19.59,465.83,-1317.36,-1828.05,1755694573.849426,13:56:13
565164.0,63.0,99.0,99.0,3.0,0.11,0.02,10.33,-0.02,0.01,0.0,19.59,465.83,-1317.36,-1827.83,1755694573.9520595,13:56:13
565186.0,63.0,99.0,99.0,3.0,0.11,0.03,10.33,-0.02,0.01,0.0,19.58,465.83,-1317.35,-1827.6,1755694574.0532575,13:56:14
565207.0,63.0,99.0,99.0,3.0,0.11,0.02,10.29,-0.02,0.01,0.0,19.59,465.83,-1317.35,-1827.38,1755694574.1098366,13:56:14
565228.0,63.0,99.0,99.0,3.0,0.11,0.03,10.32,-0.02,0.01,0.0,19.59,465.84,-1317.35,-1827.17,1755694574.2725961,13:56:14
565249.0,63.0,99.0,99.0,3.0,0.11,0.06,10.28,-0.02,0.01,0.0,19.59,465.84,-1317.35,-1826.95,1755694574.361228,13:56:14
565271.0,63.0,99.0,99.0,3.0,0.12,0.05,10.26,-0.02,0.01,0.0,19.58,465.84,-1317.35,-1826.72,1755694574.4675884,13:56:14
565292.0,63.0,99.0,99.0,3.0,0.11,0.04,10.28,-0.02,0.01,0.0,19.59,465.84,-1317.35,-1826.51,1755694574.5707827,13:56:14
565313.0,63.0,99.0,99.0,3.0,0.1,0.04,10.33,-0.02,0.01,0.0,19.58,465.85,-1317.35,-1826.29,1755694574.6293151,13:56:14
565336.0,63.0,99.0,99.0,3.0,0.09,0.04,10.34,-0.02,0.01,0.0,19.58,465.85,-1317.35,-1826.05,1755694574.77328,13:56:14
565357.0,63.0,99.0,99.0,3.0,0.12,0.04,10.3,-0.02,0.01,0.0,19.58,465.85,-1317.35,-1825.84,1755694574.8780992,13:56:14
565378.0,63.0,99.0,99.0,3.0,0.11,0.04,10.3,-0.02,0.01,0.0,19.59,465.85,-1317.35,-1825.62,1755694574.9765909,13:56:14
565399.0,63.0,99.0,99.0,3.0,0.11,0.03,10.32,-0.02,0.01,0.01,19.6,465.86,-1317.35,-1825.4,1755694575.0251124,13:56:15
565420.0,63.0,99.0,99.0,3.0,0.11,0.03,10.31,-0.02,0.01,0.0,19.59,465.86,-1317.35,-1825.19,1755694575.0761151,13:56:15
565441.0,63.0,99.0,99.0,3.0,0.11,0.02,10.32,-0.02,0.01,0.0,19.6,465.86,-1317.35,-1824.97,1755694575.17992,13:56:15
565462.0,63.0,99.0,99.0,3.0,0.1,0.03,10.31,-0.02,0.01,0.0,19.6,465.86,-1317.34,-1824.75,1755694575.2346113,13:56:15
565484.0,63.0,99.0,99.0,3.0,0.11,0.03,10.31,-0.02,0.01,0.0,19.58,465.86,-1317.34,-1824.53,1755694575.387571,13:56:15
565505.0,63.0,99.0,99.0,3.0,0.12,0.04,10.3,-0.03,0.01,0.0,19.58,465.87,-1317.34,-1824.31,1755694575.4410625,13:56:15
565526.0,63.0,99.0,99.0,3.0,0.1,0.05,10.3,-0.02,0.01,0.0,19.59,465.87,-1317.34,-1824.1,1755694575.493348,13:56:15
565548.0,63.0,99.0,99.0,3.0,0.1,0.03,10.3,-0.02,0.01,0.0,19.59,465.87,-1317.34,-1823.87,1755694575.588526,13:56:15
565569.0,63.0,99.0,99.0,3.0,0.11,0.03,10.3,-0.02,0.01,0.0,19.6,465.87,-1317.34,-1823.65,1755694575.6412866,13:56:15
565591.0,63.0,99.0,99.0,3.0,0.11,0.04,10.31,-0.02,0.01,0.0,19.58,465.88,-1317.34,-1823.43,1755694575.807872,13:56:15
565612.0,63.0,99.0,99.0,3.0,0.1,0.02,10.31,-0.02,0.01,0.0,19.58,465.88,-1317.34,-1823.21,1755694575.899103,13:56:15
565633.0,63.0,99.0,99.0,3.0,0.08,0.02,10.29,-0.02,0.01,0.0,19.59,465.88,-1317.34,-1822.99,1755694575.9610724,13:56:15
565654.0,63.0,99.0,99.0,3.0,0.1,0.03,10.29,-0.02,0.01,0.0,19.59,465.88,-1317.34,-1822.78,1755694576.1038933,13:56:16
565676.0,63.0,99.0,99.0,3.0,0.11,0.02,10.3,-0.02,0.01,0.0,19.58,465.88,-1317.34,-1822.55,1755694576.1748343,13:56:16
565698.0,63.0,99.0,99.0,3.0,0.11,0.03,10.33,-0.02,0.01,0.0,19.57,465.89,-1317.34,-1822.32,1755694576.3067453,13:56:16
565719.0,63.0,99.0,99.0,3.0,0.11,0.04,10.31,-0.02,0.01,0.01,19.59,465.89,-1317.34,-1822.11,1755694576.367799,13:56:16
565740.0,63.0,99.0,99.0,3.0,0.1,0.04,10.31,-0.02,0.01,0.0,19.58,465.89,-1317.34,-1821.89,1755694576.6256323,13:56:16
565761.0,63.0,99.0,99.0,3.0,0.11,0.03,10.3,-0.02,0.01,0.0,19.59,465.89,-1317.33,-1821.67,1755694576.7199638,13:56:16
565782.0,63.0,99.0,99.0,3.0,0.1,0.03,10.3,-0.02,0.01,0.0,19.58,465.9,-1317.33,-1821.46,1755694576.769699,13:56:16
565804.0,63.0,99.0,99.0,3.0,0.1,0.03,10.32,-0.02,0.01,0.0,19.59,465.9,-1317.33,-1821.23,1755694576.9212468,13:56:16
565825.0,63.0,99.0,99.0,3.0,0.1,0.03,10.28,-0.02,0.01,0.0,19.58,465.9,-1317.33,-1821.01,1755694577.024626,13:56:17
565847.0,63.0,99.0,99.0,3.0,0.11,0.04,10.3,-0.02,0.01,0.0,19.57,465.9,-1317.33,-1820.79,1755694577.1251664,13:56:17
565868.0,63.0,99.0,99.0,3.0,0.11,0.05,10.34,-0.02,0.01,0.0,19.59,465.9,-1317.33,-1820.57,1755694577.2279816,13:56:17
565889.0,63.0,99.0,99.0,3.0,0.12,0.04,10.32,-0.03,0.01,0.0,19.58,465.91,-1317.33,-1820.35,1755694577.328276,13:56:17
565910.0,63.0,99.0,99.0,3.0,0.11,0.05,10.31,-0.02,0.01,0.0,19.59,465.91,-1317.33,-1820.14,1755694577.3817189,13:56:17
565931.0,63.0,99.0,99.0,3.0,0.12,0.02,10.3,-0.02,0.01,0.0,19.6,465.91,-1317.33,-1819.92,1755694577.434377,13:56:17
565952.0,63.0,99.0,99.0,3.0,0.11,0.04,10.32,-0.02,0.01,0.0,19.59,465.91,-1317.33,-1819.7,1755694577.53789,13:56:17
565973.0,63.0,99.0,99.0,3.0,0.1,0.03,10.3,-0.03,0.01,0.0,19.58,465.92,-1317.33,-1819.49,1755694577.58822,13:56:17
565995.0,63.0,99.0,99.0,3.0,0.11,0.01,10.3,-0.02,0.01,0.0,19.58,465.92,-1317.33,-1819.26,1755694577.6375396,13:56:17
566016.0,64.0,99.0,99.0,3.0,0.11,0.04,10.34,-0.02,0.01,0.0,19.59,465.92,-1317.33,-1819.04,1755694577.6890051,13:56:17
566037.0,64.0,99.0,99.0,3.0,0.11,0.03,10.28,-0.02,0.01,0.0,19.59,465.92,-1317.33,-1818.83,1755694577.8647413,13:56:17
566058.0,64.0,99.0,99.0,3.0,0.12,0.05,10.32,-0.02,0.01,0.0,19.6,465.93,-1317.32,-1818.61,1755694577.9528425,13:56:17
566080.0,64.0,99.0,99.0,3.0,0.12,0.04,10.3,-0.02,0.01,0.0,19.59,465.93,-1317.32,-1818.39,1755694578.0107217,13:56:18
566102.0,64.0,99.0,99.0,3.0,0.1,0.04,10.33,-0.02,0.01,0.0,19.59,465.93,-1317.32,-1818.16,1755694578.1557412,13:56:18
566123.0,64.0,99.0,99.0,3.0,0.1,0.04,10.33,-0.02,0.01,0.01,19.59,465.93,-1317.32,-1817.94,1755694578.206466,13:56:18
566145.0,64.0,99.0,99.0,3.0,0.11,0.01,10.3,-0.02,0.01,0.0,19.59,465.93,-1317.32,-1817.71,1755694578.2592628,13:56:18
566167.0,64.0,99.0,99.0,3.0,0.1,0.02,10.3,-0.02,0.01,0.0,19.59,465.94,-1317.32,-1817.49,1755694578.35704,13:56:18
566188.0,64.0,99.0,99.0,3.0,0.12,0.03,10.3,-0.03,0.01,0.0,19.57,465.94,-1317.32,-1817.27,1755694578.4592576,13:56:18
566210.0,64.0,99.0,99.0,3.0,0.11,0.04,10.32,-0.02,0.01,0.0,19.59,465.94,-1317.32,-1817.04,1755694578.559536,13:56:18
566231.0,64.0,99.0,99.0,3.0,0.11,0.04,10.28,-0.02,0.01,0.0,19.61,465.94,-1317.32,-1816.83,1755694578.6660306,13:56:18
566252.0,64.0,99.0,99.0,3.0,0.11,0.04,10.3,-0.03,0.01,0.01,19.59,465.95,-1317.32,-1816.61,1755694578.866382,13:56:18
566273.0,64.0,99.0,99.0,3.0,0.11,0.04,10.3,-0.03,0.01,0.0,19.58,465.95,-1317.32,-1816.4,1755694578.9228375,13:56:18
566294.0,64.0,99.0,99.0,3.0,0.11,0.03,10.31,-0.03,0.01,0.0,19.58,465.95,-1317.32,-1816.18,1755694578.9734018,13:56:18
566316.0,64.0,99.0,99.0,3.0,0.09,0.03,10.3,-0.02,0.01,0.0,19.58,465.95,-1317.32,-1815.95,1755694579.0750308,13:56:19
566338.0,64.0,99.0,99.0,3.0,0.09,0.04,10.3,-0.02,0.01,0.0,19.58,465.95,-1317.31,-1815.73,1755694579.1802855,13:56:19
566360.0,64.0,99.0,99.0,3.0,0.1,0.03,10.29,-0.02,0.01,0.0,19.57,465.96,-1317.31,-1815.5,1755694579.276057,13:56:19
566381.0,64.0,99.0,99.0,3.0,0.11,0.04,10.34,-0.02,0.01,0.01,19.61,465.96,-1317.31,-1815.28,1755694579.3798962,13:56:19
566402.0,64.0,99.0,99.0,3.0,0.11,0.04,10.3,-0.02,0.01,0.01,19.6,465.96,-1317.31,-1815.07,1755694579.4828362,13:56:19
566423.0,64.0,99.0,99.0,3.0,0.11,0.02,10.29,-0.02,0.01,0.0,19.59,465.96,-1317.31,-1814.85,1755694579.5852444,13:56:19
566444.0,64.0,99.0,99.0,3.0,0.12,0.03,10.33,-0.02,0.01,0.01,19.59,465.97,-1317.31,-1814.63,1755694579.638962,13:56:19
566465.0,64.0,99.0,99.0,3.0,0.09,0.03,10.3,-0.02,0.01,0.0,19.59,465.97,-1317.31,-1814.42,1755694579.688771,13:56:19
566486.0,64.0,99.0,99.0,3.0,0.09,0.02,10.31,-0.02,0.01,0.0,19.58,465.97,-1317.31,-1814.2,1755694579.7491817,13:56:19
566508.0,64.0,99.0,99.0,3.0,0.1,0.05,10.3,-0.02,0.01,0.0,19.6,465.97,-1317.31,-1813.97,1755694579.8060648,13:56:19
566529.0,64.0,99.0,99.0,3.0,0.09,0.03,10.31,-0.02,0.01,0.0,19.6,465.97,-1317.31,-1813.76,1755694579.8539996,13:56:19
566550.0,64.0,99.0,99.0,3.0,0.11,0.03,10.31,-0.02,0.01,0.0,19.59,465.98,-1317.31,-1813.54,1755694579.9902704,13:56:19
566572.0,64.0,99.0,99.0,3.0,0.1,0.03,10.28,-0.02,0.01,0.0,19.6,465.98,-1317.31,-1813.32,1755694580.0435998,13:56:20
566593.0,64.0,99.0,99.0,3.0,0.11,0.03,10.3,-0.03,0.01,0.0,19.59,465.98,-1317.31,-1813.1,1755694580.2002127,13:56:20
566615.0,64.0,99.0,99.0,3.0,0.11,0.03,10.31,-0.02,0.01,0.0,19.6,465.98,-1317.31,-1812.87,1755694580.3032036,13:56:20
566636.0,64.0,99.0,99.0,3.0,0.1,0.05,10.28,-0.02,0.01,0.0,19.6,465.99,-1317.3,-1812.66,1755694580.3517914,13:56:20
566657.0,64.0,99.0,99.0,3.0,0.1,0.05,10.3,-0.02,0.01,0.0,19.6,465.99,-1317.3,-1812.44,1755694580.4010346,13:56:20
566679.0,64.0,99.0,99.0,3.0,0.11,0.04,10.3,-0.02,0.01,0.0,19.6,465.99,-1317.3,-1812.21,1755694580.4529705,13:56:20
566701.0,64.0,99.0,99.0,3.0,0.11,0.02,10.3,-0.02,0.01,0.0,19.58,465.99,-1317.3,-1811.99,1755694580.5022423,13:56:20
566722.0,64.0,99.0,99.0,3.0,0.12,0.05,10.29,-0.02,0.01,0.0,19.6,465.99,-1317.3,-1811.77,1755694580.5581305,13:56:20
566743.0,64.0,99.0,99.0,3.0,0.1,0.04,10.28,-0.02,0.01,0.0,19.6,466.0,-1317.3,-1811.55,1755694580.712071,13:56:20
566764.0,64.0,99.0,99.0,3.0,0.1,0.05,10.3,-0.02,0.01,0.01,19.58,466.0,-1317.3,-1811.34,1755694580.7646046,13:56:20
566785.0,64.0,99.0,99.0,3.0,0.08,0.04,10.31,-0.02,0.01,0.0,19.58,466.0,-1317.3,-1811.12,1755694580.8122811,13:56:20
566806.0,64.0,99.0,99.0,3.0,0.1,0.04,10.31,-0.02,0.01,0.0,19.58,466.0,-1317.3,-1810.91,1755694580.916527,13:56:20
566828.0,64.0,99.0,99.0,3.0,0.11,0.01,10.31,-0.02,0.01,0.0,19.59,466.01,-1317.3,-1810.68,1755694581.0222085,13:56:21
566849.0,64.0,99.0,99.0,3.0,0.12,0.04,10.29,-0.02,0.01,0.01,19.59,466.01,-1317.3,-1810.46,1755694581.1229105,13:56:21
566870.0,64.0,99.0,99.0,3.0,0.11,0.03,10.31,-0.02,0.01,0.0,19.58,466.01,-1317.3,-1810.25,1755694581.2225053,13:56:21
566891.0,64.0,99.0,99.0,3.0,0.1,0.04,10.31,-0.02,0.01,0.0,19.57,466.01,-1317.29,-1810.03,1755694581.278702,13:56:21
566913.0,64.0,99.0,99.0,3.0,0.1,0.05,10.3,-0.03,0.01,0.0,19.59,466.01,-1317.29,-1809.8,1755694581.4261613,13:56:21
566934.0,64.0,99.0,99.0,3.0,0.11,0.04,10.28,-0.03,0.01,0.0,19.59,466.02,-1317.29,-1809.59,1755694581.528412,13:56:21
566955.0,64.0,99.0,99.0,3.0,0.1,0.04,10.3,-0.02,0.01,0.0,19.62,466.02,-1317.29,-1809.37,1755694581.586193,13:56:21
566976.0,64.0,99.0,99.0,3.0,0.12,0.03,10.3,-0.02,0.01,0.0,19.61,466.02,-1317.29,-1809.15,1755694581.740117,13:56:21
566997.0,64.0,99.0,99.0,3.0,0.11,0.03,10.3,-0.02,0.01,0.0,19.6,466.02,-1317.29,-1808.94,1755694581.7966998,13:56:21
567019.0,64.0,99.0,99.0,3.0,0.11,0.03,10.3,-0.02,0.01,0.0,19.59,466.03,-1317.29,-1808.71,1755694581.943219,13:56:21
567040.0,64.0,99.0,99.0,3.0,0.11,0.02,10.32,-0.03,0.01,0.0,19.59,466.03,-1317.29,-1808.5,1755694582.1491792,13:56:22
567061.0,64.0,99.0,99.0,3.0,0.11,0.03,10.3,-0.02,0.01,0.0,19.61,466.03,-1317.29,-1808.28,1755694582.2481356,13:56:22
567083.0,64.0,99.0,99.0,3.0,0.11,0.04,10.31,-0.02,0.01,0.01,19.59,466.03,-1317.29,-1808.05,1755694582.351834,13:56:22
567104.0,64.0,99.0,99.0,3.0,0.09,0.03,10.3,-0.02,0.01,0.0,19.59,466.04,-1317.29,-1807.84,1755694582.4036946,13:56:22
567125.0,64.0,99.0,99.0,3.0,0.1,0.02,10.33,-0.02,0.01,0.0,19.59,466.04,-1317.29,-1807.62,1755694582.4558516,13:56:22
567146.0,64.0,99.0,99.0,3.0,0.11,0.05,10.29,-0.02,0.01,0.0,19.58,466.04,-1317.29,-1807.4,1755694582.553163,13:56:22
567167.0,64.0,99.0,99.0,3.0,0.1,0.02,10.32,-0.02,0.01,0.0,19.6,466.04,-1317.28,-1807.19,1755694582.6653588,13:56:22
567188.0,64.0,99.0,99.0,3.0,0.1,0.03,10.29,-0.02,0.01,0.0,19.58,466.04,-1317.28,-1806.97,1755694582.7597373,13:56:22
567209.0,64.0,99.0,99.0,3.0,0.1,0.03,10.31,-0.02,0.01,0.0,19.59,466.05,-1317.28,-1806.75,1755694582.860373,13:56:22
567231.0,64.0,99.0,99.0,3.0,0.11,0.04,10.31,-0.02,0.01,0.0,19.58,466.05,-1317.28,-1806.53,1755694582.9172003,13:56:22
567252.0,64.0,99.0,99.0,3.0,0.11,0.06,10.31,-0.02,0.01,0.0,19.59,466.05,-1317.28,-1806.31,1755694582.9676094,13:56:22
567273.0,64.0,99.0,99.0,3.0,0.1,0.03,10.3,-0.02,0.01,0.0,19.57,466.05,-1317.28,-1806.09,1755694583.019443,13:56:23
567294.0,64.0,99.0,99.0,3.0,0.11,0.03,10.3,-0.02,0.01,0.0,19.59,466.05,-1317.28,-1805.88,1755694583.168913,13:56:23
567316.0,64.0,99.0,99.0,3.0,0.11,0.05,10.28,-0.02,0.01,0.0,19.59,466.06,-1317.28,-1805.65,1755694583.271821,13:56:23
567338.0,64.0,99.0,99.0,3.0,0.11,0.04,10.28,-0.02,0.01,0.0,19.6,466.06,-1317.28,-1805.43,1755694583.3233047,13:56:23
567359.0,64.0,99.0,99.0,3.0,0.11,0.03,10.28,-0.02,0.01,0.0,19.6,466.06,-1317.28,-1805.21,1755694583.4751015,13:56:23
567381.0,64.0,99.0,99.0,3.0,0.11,0.04,10.31,-0.02,0.01,0.01,19.56,466.06,-1317.28,-1804.98,1755694583.5789971,13:56:23
567402.0,64.0,99.0,99.0,3.0,0.11,0.04,10.32,-0.02,0.01,0.01,19.57,466.07,-1317.28,-1804.77,1755694583.6347167,13:56:23
567423.0,64.0,99.0,99.0,3.0,0.11,0.02,10.31,-0.03,0.01,0.01,19.59,466.07,-1317.28,-1804.55,1755694583.787659,13:56:23
567445.0,64.0,99.0,99.0,3.0,0.08,0.05,10.3,-0.02,0.01,0.0,19.58,466.07,-1317.27,-1804.32,1755694583.8454418,13:56:23
567466.0,64.0,99.0,99.0,3.0,0.12,0.01,10.28,-0.03,0.01,0.0,19.59,466.07,-1317.27,-1804.11,1755694583.910755,13:56:23
567487.0,64.0,99.0,99.0,3.0,0.13,0.02,10.29,-0.02,0.01,0.0,19.59,466.08,-1317.27,-1803.89,1755694584.1000497,13:56:24
567508.0,64.0,99.0,99.0,3.0,0.1,0.04,10.29,-0.02,0.01,0.0,19.59,466.08,-1317.27,-1803.67,1755694584.172158,13:56:24
567530.0,64.0,99.0,99.0,3.0,0.11,0.07,10.29,-0.02,0.01,0.0,19.6,466.08,-1317.27,-1803.45,1755694584.3005233,13:56:24
567551.0,64.0,99.0,99.0,3.0,0.1,0.03,10.29,-0.02,0.01,0.0,19.59,466.08,-1317.27,-1803.23,1755694584.358191,13:56:24
567572.0,64.0,99.0,99.0,3.0,0.1,0.03,10.28,-0.02,0.01,0.0,19.59,466.08,-1317.27,-1803.02,1755694584.5027628,13:56:24
567594.0,64.0,99.0,99.0,3.0,0.1,0.03,10.3,-0.02,0.01,0.0,19.59,466.09,-1317.27,-1802.79,1755694584.6012897,13:56:24
567615.0,64.0,99.0,99.0,3.0,0.11,0.03,10.29,-0.03,0.01,0.0,19.58,466.09,-1317.27,-1802.57,1755694584.7058713,13:56:24
567636.0,64.0,99.0,99.0,3.0,0.11,0.05,10.27,-0.02,0.01,0.01,19.58,466.09,-1317.27,-1802.36,1755694584.7629564,13:56:24
567657.0,64.0,99.0,99.0,3.0,0.09,0.04,10.31,-0.03,0.01,0.0,19.59,466.09,-1317.27,-1802.14,1755694584.9093344,13:56:24
567678.0,64.0,99.0,99.0,3.0,0.09,0.01,10.3,-0.02,0.01,0.0,19.6,466.1,-1317.27,-1801.93,1755694584.9631586,13:56:24
567699.0,64.0,99.0,99.0,3.0,0.1,0.02,10.32,-0.02,0.01,0.0,19.59,466.1,-1317.27,-1801.71,1755694585.0187373,13:56:25
567720.0,64.0,99.0,99.0,3.0,0.11,0.04,10.31,-0.02,0.01,0.0,19.59,466.1,-1317.27,-1801.49,1755694585.116822,13:56:25
567742.0,64.0,99.0,99.0,3.0,0.1,0.04,10.31,-0.02,0.01,0.0,19.59,466.1,-1317.26,-1801.27,1755694585.16776,13:56:25
567763.0,64.0,99.0,99.0,3.0,0.11,0.03,10.28,-0.02,0.01,0.0,19.59,466.1,-1317.26,-1801.05,1755694585.3197908,13:56:25
567785.0,64.0,99.0,99.0,3.0,0.11,0.05,10.32,-0.02,0.01,0.0,19.58,466.11,-1317.26,-1800.82,1755694585.3903534,13:56:25
567806.0,64.0,99.0,99.0,3.0,0.11,0.02,10.31,-0.02,0.01,0.01,19.59,466.11,-1317.26,-1800.61,1755694585.6322246,13:56:25
567828.0,64.0,99.0,99.0,3.0,0.1,0.02,10.29,-0.02,0.01,0.0,19.59,466.11,-1317.26,-1800.38,1755694585.6324184,13:56:25
567850.0,64.0,99.0,99.0,3.0,0.11,0.03,10.29,-0.02,0.01,0.0,19.58,466.11,-1317.26,-1800.15,1755694585.681159,13:56:25
567871.0,64.0,99.0,99.0,3.0,0.09,0.04,10.3,-0.02,0.01,0.0,19.59,466.12,-1317.26,-1799.94,1755694585.8308027,13:56:25
567893.0,64.0,99.0,99.0,3.0,0.1,0.03,10.31,-0.02,0.01,0.0,19.58,466.12,-1317.26,-1799.71,1755694585.9348428,13:56:25
567914.0,64.0,99.0,99.0,3.0,0.1,0.03,10.3,-0.02,0.01,0.0,19.59,466.12,-1317.26,-1799.49,1755694586.0351398,13:56:26
567936.0,64.0,99.0,99.0,3.0,0.11,0.05,10.3,-0.02,0.01,0.0,19.59,466.12,-1317.26,-1799.27,1755694586.14336,13:56:26
567957.0,64.0,99.0,99.0,3.0,0.11,0.04,10.31,-0.02,0.01,0.0,19.59,466.12,-1317.26,-1799.05,1755694586.2389543,13:56:26
567978.0,64.0,99.0,99.0,3.0,0.1,0.03,10.3,-0.02,0.01,0.0,19.58,466.13,-1317.26,-1798.83,1755694586.2934196,13:56:26
567999.0,64.0,99.0,99.0,3.0,0.11,0.06,10.27,-0.02,0.01,0.0,19.59,466.13,-1317.26,-1798.62,1755694586.4438827,13:56:26
568020.0,64.0,99.0,99.0,3.0,0.11,0.04,10.29,-0.02,0.01,0.0,19.59,466.13,-1317.25,-1798.4,1755694586.6557682,13:56:26
568042.0,64.0,99.0,99.0,3.0,0.11,0.04,10.28,-0.02,0.01,0.0,19.57,466.13,-1317.25,-1798.18,1755694586.749051,13:56:26
568063.0,64.0,99.0,99.0,3.0,0.12,0.03,10.28,-0.02,0.01,0.0,19.58,466.14,-1317.25,-1797.96,1755694586.8570254,13:56:26
568084.0,0.0,0.0,0.0,0.0,0.11,0.05,10.29,-0.02,0.01,0.0,19.57,466.14,-1317.25,-1797.74,1755694586.9564183,13:56:26
568125.0,64.0,99.0,99.0,3.0,0.12,0.02,10.32,-0.03,0.01,0.0,19.59,466.14,-1317.25,-1797.32,1755694587.0622725,13:56:27
568146.0,12.0,99.0,99.0,3.0,0.09,0.04,10.31,-0.02,0.01,0.0,19.6,466.14,-1317.25,-1797.11,1755694587.159638,13:56:27
568167.0,12.0,99.0,99.0,3.0,0.11,0.03,10.31,-0.03,0.01,0.0,19.59,466.15,-1317.25,-1796.89,1755694587.3697329,13:56:27
568188.0,12.0,99.0,99.0,3.0,0.11,0.03,10.29,-0.02,0.01,0.0,19.59,466.15,-1317.25,-1796.67,1755694587.4298966,13:56:27
568209.0,12.0,99.0,99.0,3.0,0.11,0.02,10.32,-0.02,0.01,0.0,19.59,466.15,-1317.25,-1796.46,1755694587.573663,13:56:27
568230.0,64.0,99.0,99.0,3.0,0.13,0.02,10.31,-0.02,0.01,0.0,19.59,466.15,-1317.25,-1796.24,1755694587.623577,13:56:27
568253.0,64.0,99.0,99.0,3.0,0.11,0.03,10.29,-0.03,0.01,0.0,19.59,466.16,-1317.25,-1796.0,1755694587.8841052,13:56:27
568274.0,64.0,99.0,99.0,3.0,0.1,0.02,10.3,-0.02,0.01,0.0,19.59,466.16,-1317.25,-1795.79,1755694587.8842087,13:56:27
568296.0,64.0,99.0,99.0,3.0,0.09,0.02,10.29,-0.02,0.01,0.0,19.58,466.16,-1317.25,-1795.56,1755694587.9780555,13:56:27
568317.0,64.0,99.0,99.0,3.0,0.11,0.04,10.3,-0.02,0.01,0.0,19.61,466.16,-1317.24,-1795.34,1755694588.0294862,13:56:28
568339.0,64.0,99.0,99.0,3.0,0.11,0.04,10.28,-0.02,0.01,0.0,19.58,466.17,-1317.24,-1795.12,1755694588.189702,13:56:28
568361.0,64.0,99.0,99.0,3.0,0.11,0.04,10.28,-0.02,0.01,0.0,19.59,466.17,-1317.24,-1794.89,1755694588.5593026,13:56:28
568382.0,64.0,99.0,99.0,3.0,0.13,0.05,10.31,-0.02,0.01,0.0,19.58,466.17,-1317.24,-1794.67,1755694588.5594182,13:56:28
568403.0,64.0,99.0,99.0,3.0,0.11,0.04,10.3,-0.03,0.01,0.0,19.58,466.17,-1317.24,-1794.46,1755694588.6088405,13:56:28
568425.0,64.0,99.0,99.0,3.0,0.11,0.04,10.3,-0.02,0.01,0.01,19.58,466.18,-1317.24,-1794.23,1755694588.700697,13:56:28
568446.0,64.0,99.0,99.0,3.0,0.12,0.05,10.3,-0.02,0.01,0.0,19.57,466.18,-1317.24,-1794.02,1755694588.752828,13:56:28
568467.0,64.0,99.0,99.0,3.0,0.11,0.04,10.28,-0.03,0.01,0.0,19.58,466.18,-1317.24,-1793.8,1755694588.8997405,13:56:28
568488.0,64.0,99.0,99.0,3.0,0.1,0.04,10.28,-0.02,0.01,0.0,19.59,466.18,-1317.24,-1793.58,1755694589.0063396,13:56:29
568509.0,64.0,99.0,99.0,3.0,0.09,0.02,10.3,-0.02,0.01,0.0,19.59,466.18,-1317.24,-1793.37,1755694589.0637147,13:56:29
568530.0,64.0,99.0,99.0,3.0,0.1,0.03,10.32,-0.02,0.01,0.0,19.59,466.19,-1317.24,-1793.15,1755694589.2138457,13:56:29
568552.0,64.0,99.0,99.0,3.0,0.12,0.04,10.3,-0.03,0.01,0.0,19.56,466.19,-1317.24,-1792.92,1755694589.2764506,13:56:29
568573.0,64.0,99.0,99.0,3.0,0.11,0.03,10.3,-0.02,0.01,0.0,19.58,466.19,-1317.23,-1792.71,1755694589.4249253,13:56:29
568594.0,64.0,99.0,99.0,3.0,0.11,0.03,10.31,-0.03,0.01,0.01,19.58,466.19,-1317.23,-1792.49,1755694589.479719,13:56:29
568616.0,64.0,99.0,99.0,3.0,0.1,0.04,10.31,-0.02,0.01,0.0,19.6,466.2,-1317.23,-1792.26,1755694589.5359166,13:56:29
568638.0,64.0,99.0,99.0,3.0,0.14,0.03,10.3,-0.02,0.01,0.0,19.59,466.2,-1317.23,-1792.04,1755694589.619348,13:56:29
568660.0,64.0,99.0,99.0,3.0,0.12,0.03,10.29,-0.02,0.01,0.0,19.58,466.2,-1317.23,-1791.81,1755694589.6745298,13:56:29
568681.0,64.0,99.0,99.0,3.0,0.11,0.03,10.3,-0.02,0.01,0.0,19.59,466.2,-1317.23,-1791.59,1755694589.8236504,13:56:29
568702.0,64.0,99.0,99.0,3.0,0.11,0.04,10.31,-0.03,0.01,0.0,19.6,466.21,-1317.23,-1791.38,1755694589.9241893,13:56:29
568723.0,64.0,99.0,99.0,3.0,0.11,0.03,10.31,-0.02,0.01,0.0,19.58,466.21,-1317.23,-1791.16,1755694589.979684,13:56:29
568744.0,64.0,99.0,99.0,3.0,0.11,0.04,10.29,-0.02,0.01,0.0,19.58,466.21,-1317.23,-1790.95,1755694590.0288024,13:56:30
568766.0,64.0,99.0,99.0,3.0,0.11,0.03,10.27,-0.02,0.01,0.0,19.57,466.21,-1317.23,-1790.72,1755694590.1314955,13:56:30
568787.0,64.0,99.0,99.0,3.0,0.11,0.01,10.31,-0.02,0.01,0.0,19.57,466.21,-1317.23,-1790.5,1755694590.234696,13:56:30
568809.0,64.0,99.0,99.0,3.0,0.1,0.04,10.32,-0.02,0.01,0.0,19.58,466.22,-1317.23,-1790.28,1755694590.2895024,13:56:30
568830.0,64.0,99.0,99.0,3.0,0.12,0.03,10.31,-0.02,0.01,0.0,19.59,466.22,-1317.23,-1790.06,1755694590.438294,13:56:30
568851.0,64.0,99.0,99.0,3.0,0.11,0.05,10.3,-0.02,0.01,0.0,19.55,466.22,-1317.23,-1789.84,1755694590.6457078,13:56:30
568873.0,64.0,99.0,99.0,3.0,0.1,0.01,10.31,-0.02,0.01,0.0,19.57,466.22,-1317.23,-1789.62,1755694590.743248,13:56:30
568894.0,64.0,99.0,99.0,3.0,0.1,0.06,10.3,-0.03,0.01,0.0,19.57,466.23,-1317.22,-1789.4,1755694590.8021183,13:56:30
568916.0,64.0,99.0,99.0,3.0,0.1,0.05,10.31,-0.02,0.01,0.0,19.59,466.23,-1317.22,-1789.17,1755694590.9501038,13:56:30
568937.0,64.0,99.0,99.0,3.0,0.09,0.02,10.3,-0.02,0.01,0.0,19.58,466.23,-1317.22,-1788.96,1755694591.0522916,13:56:31
568958.0,64.0,99.0,99.0,3.0,0.11,0.02,10.3,-0.02,0.01,0.01,19.59,466.23,-1317.22,-1788.74,1755694591.1098938,13:56:31
568980.0,64.0,99.0,99.0,3.0,0.11,0.02,10.3,-0.02,0.01,0.01,19.58,466.23,-1317.22,-1788.51,1755694591.2703443,13:56:31
569001.0,64.0,99.0,99.0,3.0,0.11,0.04,10.32,-0.03,0.01,0.0,19.58,466.24,-1317.22,-1788.3,1755694591.3784614,13:56:31
569022.0,64.0,99.0,99.0,3.0,0.11,0.03,10.3,-0.02,0.01,0.0,19.59,466.24,-1317.22,-1788.08,1755694591.432346,13:56:31
569043.0,64.0,99.0,99.0,3.0,0.11,0.02,10.3,-0.02,0.01,0.0,19.58,466.24,-1317.22,-1787.86,1755694591.4967692,13:56:31
569065.0,64.0,99.0,99.0,3.0,0.1,0.04,10.32,-0.02,0.01,0.0,19.59,466.24,-1317.22,-1787.64,1755694591.6742966,13:56:31
569086.0,64.0,99.0,99.0,3.0,0.11,0.04,10.3,-0.02,0.01,0.0,19.6,466.25,-1317.22,-1787.42,1755694591.771697,13:56:31
569107.0,64.0,99.0,99.0,3.0,0.11,0.03,10.32,-0.02,0.01,0.0,19.58,466.25,-1317.22,-1787.2,1755694591.8762717,13:56:31
569128.0,64.0,99.0,99.0,3.0,0.11,0.03,10.28,-0.02,0.01,0.0,19.58,466.25,-1317.22,-1786.99,1755694591.9720058,13:56:31
569150.0,64.0,99.0,99.0,3.0,0.11,0.02,10.32,-0.03,0.01,0.0,19.58,466.25,-1317.22,-1786.76,1755694592.0310135,13:56:32
569172.0,64.0,99.0,99.0,3.0,0.11,0.03,10.32,-0.02,0.01,0.01,19.59,466.26,-1317.22,-1786.54,1755694592.1766279,13:56:32
569193.0,64.0,99.0,99.0,3.0,0.11,0.02,10.31,-0.02,0.01,0.0,19.58,466.26,-1317.21,-1786.32,1755694592.285861,13:56:32
569214.0,64.0,99.0,99.0,3.0,0.11,0.03,10.32,-0.02,0.01,0.0,19.59,466.26,-1317.21,-1786.1,1755694592.3840497,13:56:32
569236.0,64.0,99.0,99.0,3.0,0.11,0.03,10.3,-0.02,0.01,0.0,19.59,466.26,-1317.21,-1785.87,1755694592.4347034,13:56:32
569257.0,64.0,99.0,99.0,3.0,0.1,0.04,10.31,-0.02,0.01,0.0,19.59,466.26,-1317.21,-1785.66,1755694592.6303146,13:56:32
569279.0,64.0,99.0,99.0,3.0,0.11,0.02,10.3,-0.02,0.01,0.0,19.58,466.27,-1317.21,-1785.43,1755694592.8113077,13:56:32
569300.0,64.0,99.0,99.0,3.0,0.11,0.03,10.3,-0.02,0.01,0.0,19.6,466.27,-1317.21,-1785.22,1755694592.8672504,13:56:32
569321.0,64.0,99.0,99.0,3.0,0.11,0.03,10.28,-0.02,0.01,0.0,19.6,466.27,-1317.21,-1785.0,1755694593.013994,13:56:33
569342.0,64.0,99.0,99.0,3.0,0.12,0.01,10.31,-0.02,0.01,0.0,19.59,466.27,-1317.21,-1784.78,1755694593.101071,13:56:33
569364.0,64.0,99.0,99.0,3.0,0.09,0.04,10.32,-0.03,0.01,0.0,19.57,466.28,-1317.21,-1784.56,1755694593.2058406,13:56:33
569386.0,64.0,99.0,99.0,3.0,0.11,0.03,10.28,-0.02,0.01,0.0,19.59,466.28,-1317.21,-1784.33,1755694593.3080049,13:56:33
569407.0,64.0,99.0,99.0,3.0,0.11,0.03,10.28,-0.03,0.01,0.0,19.58,466.28,-1317.21,-1784.11,1755694593.4107206,13:56:33
569428.0,64.0,99.0,99.0,3.0,0.1,0.04,10.27,-0.03,0.01,0.0,19.58,466.28,-1317.21,-1783.9,1755694593.46103,13:56:33
569449.0,64.0,99.0,99.0,3.0,0.11,0.02,10.3,-0.02,0.01,0.0,19.59,466.29,-1317.21,-1783.68,1755694593.511741,13:56:33
569471.0,64.0,99.0,99.0,3.0,0.11,0.04,10.28,-0.03,0.01,0.0,19.57,466.29,-1317.21,-1783.46,1755694593.5604272,13:56:33
569492.0,64.0,99.0,99.0,3.0,0.1,0.03,10.3,-0.02,0.01,0.0,19.57,466.29,-1317.21,-1783.24,1755694593.611823,13:56:33
569513.0,64.0,99.0,99.0,3.0,0.1,0.01,10.3,-0.02,0.01,0.0,19.56,466.29,-1317.2,-1783.02,1755694593.7150245,13:56:33
569535.0,64.0,99.0,99.0,3.0,0.11,0.02,10.31,-0.02,0.01,0.0,19.57,466.29,-1317.2,-1782.8,1755694593.818344,13:56:33
569556.0,64.0,99.0,99.0,3.0,0.11,0.01,10.31,-0.02,0.01,0.0,19.58,466.3,-1317.2,-1782.58,1755694593.920095,13:56:33
569578.0,64.0,99.0,99.0,3.0,0.11,0.03,10.3,-0.02,0.01,0.0,19.58,466.3,-1317.2,-1782.35,1755694593.9785511,13:56:33
569599.0,64.0,99.0,99.0,3.0,0.11,0.03,10.3,-0.02,0.01,0.01,19.59,466.3,-1317.2,-1782.14,1755694594.126654,13:56:34
569620.0,64.0,99.0,99.0,3.0,0.12,0.04,10.31,-0.03,0.01,0.0,19.58,466.3,-1317.2,-1781.92,1755694594.1794949,13:56:34
569641.0,64.0,99.0,99.0,3.0,0.12,0.03,10.31,-0.02,0.01,0.01,19.58,466.31,-1317.2,-1781.7,1755694594.3366878,13:56:34
569663.0,64.0,99.0,99.0,3.0,0.11,0.01,10.3,-0.02,0.01,0.0,19.58,466.31,-1317.2,-1781.48,1755694594.432009,13:56:34
569685.0,64.0,99.0,99.0,3.0,0.08,0.06,10.32,-0.03,0.01,0.0,19.59,466.31,-1317.2,-1781.25,1755694594.5337443,13:56:34
569706.0,64.0,99.0,99.0,3.0,0.11,0.05,10.3,-0.02,0.01,0.0,19.58,466.31,-1317.2,-1781.03,1755694594.5817952,13:56:34
569727.0,64.0,99.0,99.0,3.0,0.1,0.03,10.28,-0.02,0.01,0.0,19.59,466.31,-1317.2,-1780.82,1755694594.7813475,13:56:34
569750.0,64.0,99.0,99.0,3.0,0.11,0.04,10.31,-0.03,0.01,0.0,19.59,466.32,-1317.2,-1780.58,1755694594.9463866,13:56:34
569772.0,64.0,99.0,99.0,3.0,0.1,0.04,10.32,-0.02,0.01,0.0,19.59,466.32,-1317.2,-1780.35,1755694595.0495744,13:56:35
569794.0,64.0,99.0,99.0,3.0,0.09,0.02,10.31,-0.02,0.01,0.0,19.59,466.32,-1317.2,-1780.13,1755694595.1501217,13:56:35
569815.0,64.0,99.0,99.0,3.0,0.11,0.06,10.32,-0.03,0.01,0.0,19.6,466.32,-1317.2,-1779.91,1755694595.2504206,13:56:35
569836.0,64.0,99.0,99.0,3.0,0.11,0.04,10.3,-0.02,0.01,0.0,19.59,466.33,-1317.19,-1779.69,1755694595.3054135,13:56:35
569857.0,64.0,99.0,99.0,3.0,0.11,0.03,10.28,-0.02,0.01,0.0,19.59,466.33,-1317.19,-1779.48,1755694595.4647021,13:56:35
569878.0,64.0,99.0,99.0,3.0,0.11,0.04,10.31,-0.02,0.01,0.01,19.6,466.33,-1317.19,-1779.26,1755694595.5595853,13:56:35
569900.0,64.0,99.0,99.0,3.0,0.11,0.04,10.32,-0.02,0.01,0.0,19.59,466.33,-1317.19,-1779.03,1755694595.6637735,13:56:35
569921.0,64.0,99.0,99.0,3.0,0.11,0.02,10.3,-0.02,0.01,0.0,19.57,466.34,-1317.19,-1778.82,1755694595.7646492,13:56:35
569942.0,64.0,99.0,99.0,3.0,0.09,0.04,10.3,-0.02,0.01,0.0,19.59,466.34,-1317.19,-1778.6,1755694595.8686893,13:56:35
569963.0,64.0,99.0,99.0,3.0,0.1,0.04,10.3,-0.03,0.01,0.0,19.57,466.34,-1317.19,-1778.39,1755694595.9180045,13:56:35
569985.0,64.0,99.0,99.0,3.0,0.1,0.03,10.33,-0.03,0.01,0.0,19.57,466.34,-1317.19,-1778.16,1755694595.9760554,13:56:35
570006.0,64.0,99.0,99.0,3.0,0.1,0.02,10.31,-0.02,0.01,0.0,19.59,466.34,-1317.19,-1777.94,1755694596.074185,13:56:36
570027.0,64.0,99.0,99.0,3.0,0.11,0.04,10.3,-0.02,0.01,0.0,19.59,466.35,-1317.19,-1777.73,1755694596.1736732,13:56:36
570048.0,64.0,99.0,99.0,3.0,0.1,0.03,10.31,-0.02,0.01,0.0,19.59,466.35,-1317.19,-1777.51,1755694596.2247343,13:56:36
570069.0,64.0,99.0,99.0,3.0,0.11,0.04,10.32,-0.02,0.01,0.01,19.59,466.35,-1317.19,-1777.29,1755694596.3761299,13:56:36
570091.0,64.0,99.0,99.0,3.0,0.1,0.04,10.29,-0.02,0.01,0.0,19.57,466.35,-1317.19,-1777.07,1755694596.480701,13:56:36
570112.0,64.0,99.0,99.0,3.0,0.1,0.01,10.3,-0.02,0.01,0.0,19.57,466.35,-1317.18,-1776.85,1755694596.5841894,13:56:36
570133.0,64.0,99.0,99.0,3.0,0.1,0.02,10.31,-0.02,0.01,0.0,19.57,466.36,-1317.18,-1776.63,1755694596.634692,13:56:36
570154.0,64.0,99.0,99.0,3.0,0.11,0.03,10.3,-0.02,0.01,0.0,19.58,466.36,-1317.18,-1776.42,1755694596.7887027,13:56:36
570176.0,64.0,99.0,99.0,3.0,0.1,0.02,10.32,-0.02,0.01,0.0,19.59,466.36,-1317.18,-1776.19,1755694596.838728,13:56:36
570198.0,64.0,99.0,99.0,3.0,0.09,0.02,10.3,-0.02,0.01,0.0,19.59,466.36,-1317.18,-1775.96,1755694596.9047647,13:56:36
570219.0,64.0,99.0,99.0,3.0,0.11,0.04,10.3,-0.02,0.01,0.0,19.57,466.37,-1317.18,-1775.75,1755694596.9920208,13:56:36
570241.0,64.0,99.0,99.0,3.0,0.11,0.03,10.31,-0.03,0.01,0.0,19.57,466.37,-1317.18,-1775.52,1755694597.0966494,13:56:37
570262.0,64.0,99.0,99.0,3.0,0.11,0.04,10.31,-0.02,0.01,0.0,19.6,466.37,-1317.18,-1775.3,1755694597.1530256,13:56:37
570284.0,64.0,99.0,99.0,3.0,0.11,0.03,10.3,-0.02,0.01,0.0,19.58,466.37,-1317.18,-1775.08,1755694597.2992938,13:56:37
570305.0,64.0,99.0,99.0,3.0,0.11,0.03,10.3,-0.03,0.01,0.0,19.59,466.37,-1317.18,-1774.86,1755694597.5108068,13:56:37
570326.0,64.0,99.0,99.0,3.0,0.1,0.03,10.3,-0.02,0.01,0.0,19.59,466.38,-1317.18,-1774.65,1755694597.715023,13:56:37
570347.0,64.0,99.0,99.0,3.0,0.11,0.02,10.3,-0.02,0.01,0.0,19.59,466.38,-1317.18,-1774.43,1755694597.8126788,13:56:37
570368.0,64.0,99.0,99.0,3.0,0.11,0.03,10.29,-0.02,0.01,0.0,19.57,466.38,-1317.18,-1774.21,1755694597.8779383,13:56:37
570390.0,64.0,99.0,99.0,3.0,0.1,0.02,10.28,-0.02,0.01,0.0,19.59,466.38,-1317.18,-1773.99,1755694598.0216718,13:56:38
570412.0,64.0,99.0,99.0,3.0,0.11,0.03,10.3,-0.02,0.01,0.0,19.58,466.39,-1317.18,-1773.76,1755694598.071146,13:56:38
570433.0,64.0,99.0,99.0,3.0,0.11,0.02,10.3,-0.02,0.01,0.0,19.57,466.39,-1317.18,-1773.54,1755694598.2216253,13:56:38
570455.0,64.0,99.0,99.0,3.0,0.11,0.04,10.28,-0.02,0.01,0.0,19.57,466.39,-1317.17,-1773.32,1755694598.3214173,13:56:38
570476.0,64.0,99.0,99.0,3.0,0.11,0.03,10.29,-0.03,0.01,0.0,19.59,466.39,-1317.17,-1773.1,1755694598.3740408,13:56:38
570497.0,64.0,99.0,99.0,3.0,0.09,0.05,10.31,-0.02,0.01,0.0,19.58,466.4,-1317.17,-1772.89,1755694598.5341344,13:56:38
570518.0,64.0,99.0,99.0,3.0,0.1,0.04,10.31,-0.02,0.01,0.0,19.57,466.4,-1317.17,-1772.67,1755694598.5882647,13:56:38
570539.0,64.0,99.0,99.0,3.0,0.11,0.04,10.3,-0.02,0.01,0.0,19.59,466.4,-1317.17,-1772.45,1755694598.7322438,13:56:38
570560.0,64.0,99.0,99.0,3.0,0.12,0.03,10.28,-0.02,0.01,0.0,19.59,466.4,-1317.17,-1772.24,1755694598.7940881,13:56:38
570581.0,64.0,99.0,99.0,3.0,0.11,0.06,10.3,-0.02,0.01,0.0,19.59,466.4,-1317.17,-1772.02,1755694598.9489307,13:56:38
570603.0,64.0,99.0,99.0,3.0,0.11,0.03,10.29,-0.02,0.01,0.0,19.58,466.41,-1317.17,-1771.79,1755694599.0210655,13:56:39
570624.0,64.0,99.0,99.0,3.0,0.11,0.03,10.31,-0.02,0.01,0.0,19.57,466.41,-1317.17,-1771.58,1755694599.1439903,13:56:39
570645.0,64.0,99.0,99.0,3.0,0.1,0.03,10.31,-0.02,0.01,0.0,19.58,466.41,-1317.17,-1771.36,1755694599.1990206,13:56:39
570666.0,64.0,99.0,99.0,3.0,0.09,0.02,10.3,-0.03,0.01,0.0,19.58,466.41,-1317.17,-1771.14,1755694599.3527195,13:56:39
570688.0,64.0,99.0,99.0,3.0,0.11,0.02,10.3,-0.03,0.01,0.0,19.59,466.42,-1317.17,-1770.92,1755694599.4597845,13:56:39
570710.0,64.0,99.0,99.0,3.0,0.11,0.02,10.28,-0.02,0.01,0.0,19.57,466.42,-1317.17,-1770.69,1755694599.5526578,13:56:39
570731.0,64.0,99.0,99.0,3.0,0.11,0.04,10.31,-0.02,0.01,0.0,19.6,466.42,-1317.16,-1770.47,1755694599.6097994,13:56:39
570753.0,64.0,99.0,99.0,3.0,0.11,0.04,10.3,-0.02,0.01,0.0,19.59,466.42,-1317.16,-1770.25,1755694599.7587767,13:56:39
570775.0,64.0,99.0,99.0,3.0,0.11,0.05,10.3,-0.02,0.01,0.0,19.57,466.42,-1317.16,-1770.02,1755694599.809935,13:56:39
570797.0,64.0,99.0,99.0,3.0,0.1,0.04,10.33,-0.02,0.01,0.0,19.57,466.43,-1317.16,-1769.79,1755694599.9685917,13:56:39
570818.0,64.0,99.0,99.0,3.0,0.11,0.01,10.3,-0.02,0.01,0.0,19.58,466.43,-1317.16,-1769.58,1755694600.0254986,13:56:40
570839.0,64.0,99.0,99.0,3.0,0.11,0.03,10.31,-0.02,0.01,0.0,19.59,466.43,-1317.16,-1769.36,1755694600.1721566,13:56:40
570860.0,64.0,99.0,99.0,3.0,0.11,0.05,10.3,-0.02,0.01,0.0,19.58,466.43,-1317.16,-1769.15,1755694600.2310479,13:56:40
570881.0,64.0,99.0,99.0,3.0,0.11,0.02,10.3,-0.02,0.01,0.0,19.58,466.44,-1317.16,-1768.93,1755694600.3727963,13:56:40
570903.0,64.0,99.0,99.0,3.0,0.11,0.04,10.29,-0.02,0.01,0.0,19.59,466.44,-1317.16,-1768.7,1755694600.4228995,13:56:40
570924.0,64.0,99.0,99.0,3.0,0.1,0.04,10.32,-0.02,0.01,0.0,19.59,466.44,-1317.16,-1768.49,1755694600.4760678,13:56:40
570945.0,64.0,99.0,99.0,3.0,0.11,0.04,10.32,-0.03,0.01,0.0,19.58,466.44,-1317.16,-1768.27,1755694600.5433178,13:56:40
570967.0,64.0,99.0,99.0,3.0,0.11,0.05,10.31,-0.02,0.01,0.0,19.58,466.45,-1317.16,-1768.04,1755694600.678696,13:56:40
570988.0,64.0,99.0,99.0,3.0,0.11,0.04,10.3,-0.03,0.01,0.0,19.59,466.45,-1317.15,-1767.83,1755694600.7328124,13:56:40
571009.0,64.0,99.0,99.0,3.0,0.11,0.02,10.3,-0.02,0.01,0.0,19.58,466.45,-1317.15,-1767.61,1755694600.8910265,13:56:40
571031.0,64.0,99.0,99.0,3.0,0.11,0.03,10.3,-0.02,0.01,0.0,19.58,466.45,-1317.15,-1767.38,1755694601.0876613,13:56:41
571052.0,64.0,99.0,99.0,3.0,0.11,0.02,10.31,-0.02,0.01,0.0,19.59,466.45,-1317.15,-1767.17,1755694601.2929058,13:56:41
571073.0,64.0,99.0,99.0,3.0,0.11,0.03,10.28,-0.02,0.01,0.0,19.6,466.46,-1317.15,-1766.95,1755694601.3942528,13:56:41
571094.0,64.0,99.0,99.0,3.0,0.11,0.04,10.28,-0.03,0.01,0.0,19.57,466.46,-1317.15,-1766.73,1755694601.4429622,13:56:41
571116.0,64.0,99.0,99.0,3.0,0.11,0.03,10.28,-0.02,0.01,0.0,19.59,466.46,-1317.15,-1766.51,1755694601.6015534,13:56:41
571137.0,64.0,99.0,99.0,3.0,0.11,0.01,10.3,-0.02,0.01,0.0,19.59,466.46,-1317.15,-1766.29,1755694601.703495,13:56:41
571159.0,64.0,99.0,99.0,3.0,0.12,0.03,10.3,-0.02,0.01,0.0,19.59,466.47,-1317.15,-1766.07,1755694601.8048413,13:56:41
571181.0,64.0,99.0,99.0,3.0,0.11,0.03,10.3,-0.02,0.01,0.0,19.59,466.47,-1317.15,-1765.84,1755694601.859659,13:56:41
571202.0,64.0,99.0,99.0,3.0,0.1,0.05,10.26,-0.02,0.01,0.0,19.57,466.47,-1317.15,-1765.62,1755694602.1310797,13:56:42
571223.0,64.0,99.0,99.0,3.0,0.1,0.04,10.28,-0.02,0.01,0.0,19.58,466.47,-1317.15,-1765.41,1755694602.1312912,13:56:42
571244.0,64.0,99.0,99.0,3.0,0.1,0.02,10.3,-0.02,0.01,0.0,19.58,466.48,-1317.15,-1765.19,1755694602.1866376,13:56:42
571265.0,64.0,99.0,99.0,3.0,0.13,0.04,10.3,-0.02,0.01,0.0,19.58,466.48,-1317.15,-1764.97,1755694602.326233,13:56:42
571286.0,64.0,99.0,99.0,3.0,0.1,0.02,10.3,-0.02,0.01,0.0,19.59,466.48,-1317.15,-1764.76,1755694602.3769653,13:56:42
571308.0,0.0,0.0,0.0,0.0,0.08,0.03,10.32,-0.02,0.01,0.0,19.57,466.48,-1317.14,-1764.53,1755694602.5281708,13:56:42
571349.0,64.0,99.0,99.0,3.0,0.11,0.03,10.31,-0.02,0.01,0.0,19.58,466.49,-1317.14,-1764.11,1755694602.6256893,13:56:42
571370.0,64.0,99.0,99.0,3.0,0.1,0.04,10.28,-0.02,0.01,0.0,19.58,466.49,-1317.14,-1763.89,1755694602.7310395,13:56:42
571391.0,64.0,99.0,99.0,3.0,0.11,0.02,10.32,-0.02,0.01,0.0,19.57,466.49,-1317.14,-1763.68,1755694602.8296642,13:56:42
571413.0,64.0,99.0,99.0,3.0,0.12,0.04,10.32,-0.02,0.01,0.0,19.59,466.49,-1317.14,-1763.45,1755694602.9326813,13:56:42
571435.0,64.0,99.0,99.0,3.0,0.11,0.04,10.27,-0.02,0.01,0.0,19.57,466.5,-1317.14,-1763.22,1755694602.9862304,13:56:42
571456.0,64.0,99.0,99.0,3.0,0.1,0.02,10.32,-0.02,0.01,0.0,19.58,466.5,-1317.14,-1763.01,1755694603.0579224,13:56:43
571477.0,64.0,99.0,99.0,3.0,0.1,0.04,10.3,-0.02,0.01,0.0,19.58,466.5,-1317.14,-1762.79,1755694603.1368756,13:56:43
571498.0,64.0,99.0,99.0,3.0,0.11,0.04,10.29,-0.02,0.01,0.01,19.59,466.5,-1317.14,-1762.57,1755694603.2408125,13:56:43
571520.0,64.0,99.0,99.0,3.0,0.11,0.04,10.31,-0.02,0.01,0.0,19.58,466.5,-1317.14,-1762.35,1755694603.3378305,13:56:43
571541.0,64.0,99.0,99.0,3.0,0.1,0.04,10.32,-0.02,0.01,0.0,19.58,466.51,-1317.14,-1762.13,1755694603.400994,13:56:43
571562.0,64.0,99.0,99.0,3.0,0.1,0.01,10.3,-0.02,0.01,0.0,19.59,466.51,-1317.14,-1761.91,1755694603.5501037,13:56:43
571584.0,64.0,99.0,99.0,3.0,0.11,0.03,10.3,-0.02,0.01,0.0,19.58,466.51,-1317.14,-1761.69,1755694603.600956,13:56:43
571605.0,64.0,99.0,99.0,3.0,0.11,0.03,10.31,-0.02,0.01,0.0,19.59,466.51,-1317.14,-1761.47,1755694603.7532444,13:56:43
571627.0,64.0,99.0,99.0,3.0,0.1,0.05,10.28,-0.02,0.01,0.0,19.59,466.52,-1317.13,-1761.24,1755694603.834848,13:56:43
571649.0,64.0,99.0,99.0,3.0,0.1,0.03,10.3,-0.02,0.01,0.01,19.59,466.52,-1317.13,-1761.02,1755694603.962345,13:56:43
571670.0,64.0,99.0,99.0,3.0,0.1,0.04,10.3,-0.02,0.01,0.0,19.59,466.52,-1317.13,-1760.8,1755694604.0570438,13:56:44
571692.0,64.0,99.0,99.0,3.0,0.11,0.03,10.3,-0.02,0.01,0.0,19.59,466.52,-1317.13,-1760.57,1755694604.161852,13:56:44
571713.0,64.0,99.0,99.0,3.0,0.12,0.02,10.29,-0.02,0.01,0.0,19.58,466.52,-1317.13,-1760.36,1755694604.2188,13:56:44
571734.0,64.0,99.0,99.0,3.0,0.11,0.03,10.28,-0.02,0.01,0.0,19.59,466.53,-1317.13,-1760.14,1755694604.3675823,13:56:44
571755.0,64.0,99.0,99.0,3.0,0.12,0.06,10.3,-0.02,0.01,0.0,19.59,466.53,-1317.13,-1759.93,1755694604.4666193,13:56:44
571776.0,64.0,99.0,99.0,3.0,0.11,0.03,10.31,-0.02,0.01,0.0,19.59,466.53,-1317.13,-1759.71,1755694604.5182354,13:56:44
571797.0,64.0,99.0,99.0,3.0,0.11,0.03,10.31,-0.02,0.01,0.0,19.59,466.53,-1317.13,-1759.49,1755694604.6705127,13:56:44
571819.0,64.0,99.0,99.0,3.0,0.11,0.03,10.32,-0.02,0.01,0.0,19.58,466.54,-1317.13,-1759.27,1755694604.7751167,13:56:44
571841.0,64.0,99.0,99.0,3.0,0.12,0.04,10.28,-0.02,0.01,0.0,19.59,466.54,-1317.13,-1759.04,1755694604.8782575,13:56:44
571862.0,64.0,99.0,99.0,3.0,0.11,0.03,10.31,-0.02,0.01,0.01,19.59,466.54,-1317.13,-1758.82,1755694604.9800167,13:56:44
571883.0,64.0,99.0,99.0,3.0,0.11,0.04,10.3,-0.02,0.01,0.0,19.59,466.54,-1317.13,-1758.61,1755694605.0364618,13:56:45
571905.0,64.0,99.0,99.0,3.0,0.11,0.05,10.3,-0.02,0.01,0.0,19.61,466.55,-1317.12,-1758.38,1755694605.113476,13:56:45
571926.0,64.0,99.0,99.0,3.0,0.1,0.04,10.29,-0.02,0.01,0.0,19.58,466.55,-1317.12,-1758.16,1755694605.3033664,13:56:45
571947.0,64.0,99.0,99.0,3.0,0.11,0.02,10.3,-0.03,0.01,0.0,19.6,466.55,-1317.12,-1757.95,1755694605.500794,13:56:45
571969.0,64.0,99.0,99.0,3.0,0.11,0.02,10.32,-0.02,0.01,0.0,19.59,466.55,-1317.12,-1757.72,1755694605.551355,13:56:45
571990.0,64.0,99.0,99.0,3.0,0.1,0.01,10.28,-0.02,0.01,0.0,19.6,466.55,-1317.12,-1757.51,1755694605.705856,13:56:45
572011.0,64.0,99.0,99.0,3.0,0.1,0.03,10.31,-0.02,0.01,0.0,19.59,466.56,-1317.12,-1757.29,1755694605.799591,13:56:45
572033.0,64.0,99.0,99.0,3.0,0.11,0.04,10.31,-0.02,0.01,0.0,19.59,466.56,-1317.12,-1757.06,1755694605.848489,13:56:45
572054.0,64.0,99.0,99.0,3.0,0.11,0.02,10.32,-0.02,0.01,0.01,19.57,466.56,-1317.12,-1756.85,1755694606.106503,13:56:46
572075.0,64.0,99.0,99.0,3.0,0.11,0.03,10.28,-0.02,0.01,0.0,19.58,466.56,-1317.12,-1756.63,1755694606.107169,13:56:46
572096.0,64.0,99.0,99.0,3.0,0.11,0.04,10.3,-0.02,0.01,0.0,19.6,466.57,-1317.12,-1756.41,1755694606.1660702,13:56:46
572117.0,64.0,99.0,99.0,3.0,0.11,0.02,10.28,-0.02,0.01,0.0,19.59,466.57,-1317.12,-1756.2,1755694606.2266529,13:56:46
572139.0,64.0,99.0,99.0,3.0,0.12,0.02,10.3,-0.02,0.01,0.0,19.59,466.57,-1317.12,-1755.97,1755694606.3084745,13:56:46
572160.0,64.0,99.0,99.0,3.0,0.12,0.04,10.31,-0.02,0.01,0.0,19.59,466.57,-1317.12,-1755.75,1755694606.3711743,13:56:46
572181.0,64.0,99.0,99.0,3.0,0.11,0.04,10.29,-0.02,0.01,0.0,19.61,466.58,-1317.12,-1755.54,1755694606.5162916,13:56:46
572203.0,64.0,99.0,99.0,3.0,0.11,0.04,10.3,-0.02,0.01,0.0,19.58,466.58,-1317.12,-1755.31,1755694606.6238825,13:56:46
572224.0,64.0,99.0,99.0,3.0,0.1,0.02,10.32,-0.02,0.01,0.0,19.59,466.58,-1317.11,-1755.1,1755694606.6746454,13:56:46
572246.0,64.0,99.0,99.0,3.0,0.11,0.03,10.29,-0.02,0.01,0.0,19.59,466.58,-1317.11,-1754.87,1755694606.8237019,13:56:46
572267.0,64.0,99.0,99.0,3.0,0.11,0.03,10.29,-0.02,0.01,0.0,19.61,466.58,-1317.11,-1754.65,1755694606.9236276,13:56:46
572289.0,65.0,99.0,99.0,3.0,0.11,0.04,10.3,-0.02,0.01,0.0,19.6,466.59,-1317.11,-1754.43,1755694607.027504,13:56:47
572310.0,65.0,99.0,99.0,3.0,0.11,0.03,10.27,-0.02,0.01,0.0,19.57,466.59,-1317.11,-1754.21,1755694607.0797622,13:56:47
572332.0,65.0,99.0,99.0,3.0,0.1,0.04,10.31,-0.02,0.01,0.01,19.6,466.59,-1317.11,-1753.98,1755694607.1301217,13:56:47
572354.0,65.0,99.0,99.0,3.0,0.1,0.03,10.27,-0.02,0.01,0.0,19.61,466.59,-1317.11,-1753.76,1755694607.2324417,13:56:47
572375.0,65.0,99.0,99.0,3.0,0.12,0.03,10.3,-0.02,0.01,0.0,19.59,466.6,-1317.11,-1753.54,1755694607.290473,13:56:47
572397.0,65.0,99.0,99.0,3.0,0.09,0.02,10.32,-0.02,0.01,0.0,19.59,466.6,-1317.11,-1753.31,1755694607.4407136,13:56:47
572418.0,65.0,99.0,99.0,3.0,0.11,0.03,10.29,-0.02,0.01,0.01,19.58,466.6,-1317.11,-1753.1,1755694607.5015395,13:56:47
572440.0,65.0,99.0,99.0,3.0,0.11,0.04,10.33,-0.02,0.01,0.01,19.59,466.6,-1317.11,-1752.87,1755694607.6423237,13:56:47
572461.0,65.0,99.0,99.0,3.0,0.11,0.03,10.32,-0.02,0.01,0.0,19.6,466.61,-1317.11,-1752.65,1755694607.6905847,13:56:47
572482.0,65.0,99.0,99.0,3.0,0.1,0.03,10.3,-0.02,0.01,0.0,19.59,466.61,-1317.11,-1752.44,1755694607.7445052,13:56:47
572503.0,65.0,99.0,99.0,3.0,0.11,0.04,10.29,-0.02,0.01,0.0,19.58,466.61,-1317.11,-1752.22,1755694607.8496485,13:56:47
572524.0,65.0,99.0,99.0,3.0,0.12,0.04,10.3,-0.02,0.01,0.0,19.59,466.61,-1317.11,-1752.01,1755694607.9,13:56:47
572546.0,65.0,99.0,99.0,3.0,0.11,0.04,10.29,-0.02,0.01,0.0,19.59,466.61,-1317.1,-1751.78,1755694607.9518342,13:56:47
572567.0,65.0,99.0,99.0,3.0,0.11,0.02,10.31,-0.02,0.01,0.0,19.6,466.62,-1317.1,-1751.56,1755694608.051563,13:56:48
572588.0,65.0,99.0,99.0,3.0,0.1,0.05,10.3,-0.02,0.01,0.01,19.58,466.62,-1317.1,-1751.35,1755694608.1604137,13:56:48
572609.0,65.0,99.0,99.0,3.0,0.1,0.02,10.3,-0.03,0.01,0.0,19.6,466.62,-1317.1,-1751.13,1755694608.3633385,13:56:48
572630.0,65.0,99.0,99.0,3.0,0.11,0.04,10.29,-0.02,0.01,0.0,19.59,466.62,-1317.1,-1750.91,1755694608.418161,13:56:48
572653.0,65.0,99.0,99.0,3.0,0.11,0.03,10.33,-0.02,0.01,0.0,19.61,466.63,-1317.1,-1750.68,1755694608.4688566,13:56:48
572674.0,65.0,99.0,99.0,3.0,0.1,0.04,10.3,-0.02,0.01,0.0,19.6,466.63,-1317.1,-1750.46,1755694608.5671349,13:56:48
572695.0,65.0,99.0,99.0,3.0,0.11,0.04,10.31,-0.02,0.01,0.0,19.59,466.63,-1317.1,-1750.24,1755694608.6654058,13:56:48
572716.0,65.0,99.0,99.0,3.0,0.11,0.03,10.32,-0.02,0.01,0.0,19.6,466.63,-1317.1,-1750.03,1755694608.7227921,13:56:48
572737.0,65.0,99.0,99.0,3.0,0.1,0.03,10.29,-0.02,0.01,0.0,19.6,466.64,-1317.1,-1749.81,1755694608.867693,13:56:48
572759.0,65.0,99.0,99.0,3.0,0.08,0.03,10.29,-0.02,0.01,0.0,19.59,466.64,-1317.1,-1749.58,1755694608.9177504,13:56:48
572780.0,65.0,99.0,99.0,3.0,0.12,0.02,10.29,-0.02,0.01,0.0,19.6,466.64,-1317.1,-1749.37,1755694609.0792186,13:56:49
572801.0,65.0,99.0,99.0,3.0,0.1,0.03,10.34,-0.02,0.01,0.0,19.59,466.64,-1317.1,-1749.15,1755694609.1811035,13:56:49
572823.0,65.0,99.0,99.0,3.0,0.1,0.02,10.32,-0.02,0.01,0.0,19.59,466.64,-1317.1,-1748.92,1755694609.2796123,13:56:49
572844.0,65.0,99.0,99.0,3.0,0.1,0.04,10.3,-0.02,0.01,0.0,19.59,466.65,-1317.09,-1748.71,1755694609.3373964,13:56:49
572866.0,65.0,99.0,99.0,3.0,0.11,0.04,10.3,-0.02,0.01,0.0,19.59,466.65,-1317.09,-1748.48,1755694609.4849882,13:56:49
572887.0,65.0,99.0,99.0,3.0,0.1,0.05,10.3,-0.03,0.01,0.0,19.59,466.65,-1317.09,-1748.26,1755694609.5875533,13:56:49
572908.0,65.0,99.0,99.0,3.0,0.11,0.03,10.28,-0.02,0.01,0.0,19.6,466.65,-1317.09,-1748.05,1755694609.6881442,13:56:49
572929.0,65.0,99.0,99.0,3.0,0.11,0.05,10.3,-0.02,0.01,0.0,19.58,466.65,-1317.09,-1747.83,1755694609.7945073,13:56:49
572950.0,65.0,99.0,99.0,3.0,0.1,0.03,10.33,-0.02,0.01,0.01,19.6,466.66,-1317.09,-1747.62,1755694609.8477921,13:56:49
572971.0,65.0,99.0,99.0,3.0,0.11,0.03,10.31,-0.02,0.01,0.0,19.58,466.66,-1317.09,-1747.4,1755694610.009538,13:56:50
572993.0,65.0,99.0,99.0,3.0,0.12,0.04,10.31,-0.02,0.01,0.0,19.59,466.66,-1317.09,-1747.17,1755694610.0679739,13:56:50
573014.0,65.0,99.0,99.0,3.0,0.12,0.03,10.28,-0.02,0.01,0.0,19.58,466.66,-1317.09,-1746.96,1755694610.2023754,13:56:50
573035.0,65.0,99.0,99.0,3.0,0.11,0.03,10.3,-0.02,0.01,0.0,19.58,466.67,-1317.09,-1746.74,1755694610.258876,13:56:50
573056.0,65.0,99.0,99.0,3.0,0.11,0.03,10.31,-0.02,0.01,0.0,19.58,466.67,-1317.09,-1746.52,1755694610.4148111,13:56:50
573077.0,65.0,99.0,99.0,3.0,0.1,0.02,10.3,-0.02,0.01,0.0,19.59,466.67,-1317.09,-1746.31,1755694610.4651897,13:56:50
573098.0,65.0,99.0,99.0,3.0,0.11,0.04,10.35,-0.02,0.01,0.0,19.59,466.67,-1317.09,-1746.09,1755694610.5189865,13:56:50
573119.0,65.0,99.0,99.0,3.0,0.12,0.02,10.31,-0.03,0.01,0.0,19.59,466.68,-1317.08,-1745.87,1755694610.6103737,13:56:50
573140.0,65.0,99.0,99.0,3.0,0.11,0.02,10.29,-0.02,0.01,0.0,19.6,466.68,-1317.08,-1745.66,1755694610.7151358,13:56:50
573162.0,65.0,99.0,99.0,3.0,0.11,0.05,10.32,-0.02,0.01,0.01,19.58,466.68,-1317.08,-1745.43,1755694610.7679389,13:56:50
573184.0,65.0,99.0,99.0,3.0,0.11,0.04,10.29,-0.02,0.01,0.0,19.6,466.68,-1317.08,-1745.2,1755694610.9181235,13:56:50
573205.0,65.0,99.0,99.0,3.0,0.11,0.05,10.29,-0.02,0.01,0.0,19.61,466.69,-1317.08,-1744.99,1755694611.023741,13:56:51
573226.0,66.0,99.0,99.0,3.0,0.09,0.06,10.3,-0.02,0.01,0.0,19.6,466.69,-1317.08,-1744.77,1755694611.0753207,13:56:51
573248.0,66.0,99.0,99.0,3.0,0.11,0.02,10.3,-0.02,0.01,0.0,19.59,466.69,-1317.08,-1744.54,1755694611.128657,13:56:51
573270.0,66.0,99.0,99.0,3.0,0.11,0.04,10.31,-0.02,0.01,0.0,19.59,466.69,-1317.08,-1744.32,1755694611.226581,13:56:51
573291.0,66.0,99.0,99.0,3.0,0.11,0.03,10.3,-0.02,0.01,0.01,19.59,466.69,-1317.08,-1744.1,1755694611.3269866,13:56:51
573312.0,66.0,99.0,99.0,3.0,0.11,0.04,10.3,-0.02,0.01,0.0,19.61,466.7,-1317.08,-1743.88,1755694611.4326198,13:56:51
573334.0,66.0,99.0,99.0,3.0,0.09,0.03,10.32,-0.02,0.01,0.0,19.59,466.7,-1317.08,-1743.66,1755694611.5362017,13:56:51
573356.0,66.0,99.0,99.0,3.0,0.09,0.03,10.29,-0.02,0.01,0.0,19.59,466.7,-1317.08,-1743.43,1755694611.596825,13:56:51
573377.0,66.0,99.0,99.0,3.0,0.1,0.03,10.29,-0.02,0.01,0.0,19.61,466.7,-1317.08,-1743.22,1755694611.6487367,13:56:51
573399.0,66.0,99.0,99.0,3.0,0.11,0.04,10.32,-0.02,0.01,0.0,19.59,466.71,-1317.07,-1742.99,1755694611.7384052,13:56:51
573420.0,66.0,99.0,99.0,3.0,0.1,0.03,10.3,-0.02,0.01,0.0,19.6,466.71,-1317.07,-1742.77,1755694611.7957373,13:56:51
573442.0,66.0,99.0,99.0,3.0,0.13,0.04,10.29,-0.03,0.01,0.0,19.59,466.71,-1317.07,-1742.55,1755694611.9516242,13:56:51
573463.0,66.0,99.0,99.0,3.0,0.13,0.04,10.29,-0.02,0.01,0.0,19.6,466.71,-1317.07,-1742.33,1755694612.0448668,13:56:52
573485.0,66.0,99.0,99.0,3.0,0.1,0.0,10.32,-0.02,0.01,0.0,19.6,466.72,-1317.07,-1742.1,1755694612.0951068,13:56:52
573506.0,66.0,99.0,99.0,3.0,0.12,0.04,10.3,-0.02,0.01,0.0,19.59,466.72,-1317.07,-1741.89,1755694612.146655,13:56:52
573527.0,66.0,99.0,99.0,3.0,0.11,0.03,10.28,-0.02,0.01,0.0,19.59,466.72,-1317.07,-1741.67,1755694612.3532338,13:56:52
573548.0,66.0,99.0,99.0,3.0,0.1,0.02,10.29,-0.02,0.01,0.0,19.6,466.72,-1317.07,-1741.45,1755694612.4567606,13:56:52
573570.0,66.0,99.0,99.0,3.0,0.11,0.03,10.28,-0.02,0.01,0.0,19.59,466.72,-1317.07,-1741.23,1755694612.5134196,13:56:52
573591.0,66.0,99.0,99.0,3.0,0.12,0.02,10.29,-0.02,0.01,0.0,19.6,466.73,-1317.07,-1741.01,1755694612.6649382,13:56:52
573612.0,66.0,99.0,99.0,3.0,0.11,0.03,10.31,-0.02,0.01,0.01,19.59,466.73,-1317.07,-1740.8,1755694612.8660278,13:56:52
573633.0,66.0,99.0,99.0,3.0,0.11,0.03,10.3,-0.02,0.01,0.0,19.59,466.73,-1317.07,-1740.58,1755694612.919479,13:56:52
573654.0,66.0,99.0,99.0,3.0,0.11,0.04,10.3,-0.02,0.01,0.0,19.6,466.73,-1317.07,-1740.36,1755694613.0823624,13:56:53
573676.0,66.0,99.0,99.0,3.0,0.11,0.04,10.33,-0.02,0.01,0.0,19.58,466.74,-1317.07,-1740.14,1755694613.1704552,13:56:53
573697.0,66.0,99.0,99.0,3.0,0.09,0.04,10.28,-0.02,0.01,0.0,19.59,466.74,-1317.07,-1739.92,1755694613.2278035,13:56:53
573718.0,66.0,99.0,99.0,3.0,0.11,0.03,10.27,-0.02,0.01,0.0,19.58,466.74,-1317.06,-1739.7,1755694613.3837621,13:56:53
573740.0,66.0,99.0,99.0,3.0,0.11,0.03,10.31,-0.02,0.01,0.01,19.59,466.74,-1317.06,-1739.48,1755694613.4333856,13:56:53
573761.0,66.0,99.0,99.0,3.0,0.1,0.04,10.29,-0.02,0.01,0.0,19.59,466.75,-1317.06,-1739.26,1755694613.581832,13:56:53
573782.0,66.0,99.0,99.0,3.0,0.09,0.04,10.3,-0.02,0.01,0.0,19.58,466.75,-1317.06,-1739.04,1755694613.6849859,13:56:53
573803.0,66.0,99.0,99.0,3.0,0.11,0.03,10.3,-0.02,0.01,0.0,19.59,466.75,-1317.06,-1738.83,1755694613.7874076,13:56:53
573824.0,66.0,99.0,99.0,3.0,0.1,0.03,10.29,-0.02,0.01,0.0,19.61,466.75,-1317.06,-1738.61,1755694613.8445027,13:56:53
573845.0,66.0,99.0,99.0,3.0,0.09,0.04,10.31,-0.03,0.01,0.0,19.58,466.75,-1317.06,-1738.4,1755694613.9020648,13:56:53
573867.0,66.0,99.0,99.0,3.0,0.11,0.02,10.28,-0.02,0.01,0.01,19.59,466.76,-1317.06,-1738.17,1755694613.9522774,13:56:53
573889.0,66.0,99.0,99.0,3.0,0.12,0.05,10.28,-0.02,0.01,0.0,19.58,466.76,-1317.06,-1737.94,1755694614.094221,13:56:54
573910.0,66.0,99.0,99.0,3.0,0.11,0.03,10.3,-0.02,0.01,0.0,19.61,466.76,-1317.06,-1737.73,1755694614.1949944,13:56:54
573932.0,66.0,99.0,99.0,3.0,0.11,0.04,10.28,-0.02,0.01,0.0,19.59,466.76,-1317.06,-1737.5,1755694614.2969139,13:56:54
573953.0,66.0,99.0,99.0,3.0,0.09,0.03,10.29,-0.02,0.01,0.0,19.59,466.77,-1317.06,-1737.29,1755694614.400467,13:56:54
573975.0,66.0,99.0,99.0,3.0,0.11,0.04,10.3,-0.02,0.01,0.01,19.6,466.77,-1317.06,-1737.06,1755694614.4597955,13:56:54
573997.0,66.0,99.0,99.0,3.0,0.12,0.04,10.3,-0.02,0.01,0.0,19.6,466.77,-1317.05,-1736.83,1755694614.511926,13:56:54
574018.0,66.0,99.0,99.0,3.0,0.11,0.03,10.3,-0.02,0.01,0.0,19.6,466.77,-1317.05,-1736.62,1755694614.6102514,13:56:54
574039.0,66.0,99.0,99.0,3.0,0.1,0.02,10.35,-0.02,0.01,0.0,19.6,466.77,-1317.05,-1736.4,1755694614.7069318,13:56:54
574061.0,66.0,99.0,99.0,3.0,0.11,0.04,10.33,-0.02,0.01,0.0,19.61,466.78,-1317.05,-1736.17,1755694614.7605584,13:56:54
574082.0,66.0,99.0,99.0,3.0,0.09,0.04,10.33,-0.02,0.01,0.0,19.59,466.78,-1317.05,-1735.95,1755694614.8097582,13:56:54
574103.0,66.0,99.0,99.0,3.0,0.1,0.02,10.32,-0.02,0.01,0.01,19.58,466.78,-1317.05,-1735.74,1755694614.9121687,13:56:54
574125.0,66.0,99.0,99.0,3.0,0.11,0.02,10.3,-0.02,0.01,0.0,19.59,466.78,-1317.05,-1735.51,1755694615.01563,13:56:55
574146.0,66.0,99.0,99.0,3.0,0.13,0.05,10.28,-0.02,0.01,0.0,19.61,466.79,-1317.05,-1735.29,1755694615.1195323,13:56:55
574167.0,66.0,99.0,99.0,3.0,0.11,0.05,10.3,-0.02,0.01,0.0,19.59,466.79,-1317.05,-1735.08,1755694615.173288,13:56:55
574189.0,66.0,99.0,99.0,3.0,0.1,0.03,10.3,-0.02,0.01,0.0,19.6,466.79,-1317.05,-1734.85,1755694615.3228896,13:56:55
574210.0,66.0,99.0,99.0,3.0,0.11,0.06,10.31,-0.02,0.01,0.0,19.58,466.79,-1317.05,-1734.64,1755694615.3753495,13:56:55
574231.0,66.0,99.0,99.0,3.0,0.09,0.05,10.29,-0.02,0.01,0.0,19.58,466.79,-1317.05,-1734.42,1755694615.5284383,13:56:55
574252.0,66.0,99.0,99.0,3.0,0.11,0.03,10.3,-0.03,0.01,0.0,19.61,466.8,-1317.05,-1734.2,1755694615.6419628,13:56:55
574273.0,66.0,99.0,99.0,3.0,0.11,0.02,10.32,-0.02,0.01,0.0,19.6,466.8,-1317.04,-1733.99,1755694615.711645,13:56:55
574295.0,66.0,99.0,99.0,3.0,0.11,0.02,10.31,-0.02,0.01,0.0,19.6,466.8,-1317.04,-1733.76,1755694615.9412267,13:56:55
574316.0,66.0,99.0,99.0,3.0,0.11,0.03,10.31,-0.02,0.01,0.0,19.61,466.8,-1317.04,-1733.54,1755694615.941728,13:56:55
574338.0,66.0,99.0,99.0,3.0,0.1,0.04,10.3,-0.02,0.01,0.0,19.61,466.81,-1317.04,-1733.32,1755694616.0371027,13:56:56
574359.0,66.0,99.0,99.0,3.0,0.1,0.03,10.32,-0.02,0.01,0.0,19.61,466.81,-1317.04,-1733.1,1755694616.092886,13:56:56
574380.0,66.0,99.0,99.0,3.0,0.1,0.04,10.3,-0.02,0.01,0.0,19.61,466.81,-1317.04,-1732.88,1755694616.2557244,13:56:56
574401.0,66.0,99.0,99.0,3.0,0.11,0.04,10.31,-0.03,0.01,0.0,19.59,466.81,-1317.04,-1732.67,1755694616.3137493,13:56:56
574422.0,66.0,99.0,99.0,3.0,0.11,0.02,10.31,-0.02,0.01,0.0,19.58,466.81,-1317.04,-1732.45,1755694616.4638112,13:56:56
574443.0,66.0,99.0,99.0,3.0,0.11,0.04,10.32,-0.02,0.01,0.0,19.58,466.82,-1317.04,-1732.23,1755694616.5244648,13:56:56
574464.0,66.0,99.0,99.0,3.0,0.11,0.05,10.32,-0.02,0.01,0.0,19.6,466.82,-1317.04,-1732.02,1755694616.663198,13:56:56
574487.0,66.0,99.0,99.0,3.0,0.11,0.05,10.32,-0.03,0.01,0.0,19.58,466.82,-1317.04,-1731.78,1755694616.7206194,13:56:56
574508.0,66.0,99.0,99.0,3.0,0.1,0.04,10.32,-0.02,0.01,0.0,19.59,466.82,-1317.04,-1731.56,1755694616.8569841,13:56:56
574529.0,66.0,99.0,99.0,3.0,0.11,0.02,10.3,-0.02,0.01,0.0,19.59,466.83,-1317.04,-1731.35,1755694616.9615474,13:56:56
574550.0,0.0,0.0,0.0,0.0,0.11,0.03,10.31,-0.02,0.01,0.0,19.58,466.83,-1317.04,-1731.13,1755694617.1634018,13:56:57
574591.0,66.0,99.0,99.0,3.0,0.12,0.01,10.3,-0.02,0.01,0.0,19.62,466.83,-1317.03,-1730.71,1755694617.222906,13:56:57
574612.0,66.0,99.0,99.0,3.0,0.11,0.04,10.3,-0.02,0.01,0.0,19.59,466.84,-1317.03,-1730.49,1755694617.368795,13:56:57
574633.0,66.0,99.0,99.0,3.0,0.11,0.03,10.3,-0.02,0.01,0.0,19.58,466.84,-1317.03,-1730.28,1755694617.4730072,13:56:57
574654.0,66.0,99.0,99.0,3.0,0.12,0.02,10.3,-0.02,0.01,0.0,19.59,466.84,-1317.03,-1730.06,1755694617.5231214,13:56:57
574675.0,66.0,99.0,99.0,3.0,0.1,0.05,10.3,-0.02,0.01,0.0,19.59,466.84,-1317.03,-1729.84,1755694617.6837125,13:56:57
574698.0,66.0,99.0,99.0,3.0,0.11,0.04,10.3,-0.02,0.01,0.0,19.59,466.85,-1317.03,-1729.61,1755694617.7474368,13:56:57
574719.0,66.0,99.0,99.0,3.0,0.11,0.04,10.3,-0.02,0.01,0.0,19.61,466.85,-1317.03,-1729.39,1755694617.8151565,13:56:57
574740.0,66.0,99.0,99.0,3.0,0.1,0.02,10.31,-0.02,0.01,0.0,19.61,466.85,-1317.03,-1729.17,1755694617.8788595,13:56:57
574761.0,66.0,99.0,99.0,3.0,0.11,0.03,10.31,-0.02,0.01,0.01,19.6,466.85,-1317.03,-1728.96,1755694617.9423776,13:56:57
574783.0,66.0,99.0,99.0,3.0,0.1,0.03,10.31,-0.02,0.01,0.01,19.6,466.85,-1317.03,-1728.73,1755694618.0882757,13:56:58
574805.0,66.0,99.0,99.0,3.0,0.1,0.02,10.31,-0.02,0.01,0.01,19.62,466.86,-1317.03,-1728.5,1755694618.1878653,13:56:58
574826.0,66.0,99.0,99.0,3.0,0.1,0.03,10.3,-0.02,0.01,0.0,19.58,466.86,-1317.03,-1728.29,1755694618.2922425,13:56:58
574848.0,66.0,99.0,99.0,3.0,0.09,0.04,10.31,-0.03,0.01,0.0,19.59,466.86,-1317.03,-1728.06,1755694618.3512676,13:56:58
574869.0,66.0,99.0,99.0,3.0,0.11,0.02,10.32,-0.02,0.01,0.0,19.6,466.86,-1317.03,-1727.84,1755694618.495715,13:56:58
574891.0,66.0,99.0,99.0,3.0,0.11,0.06,10.3,-0.02,0.01,0.0,19.6,466.86,-1317.02,-1727.62,1755694618.5976543,13:56:58
574913.0,66.0,99.0,99.0,3.0,0.1,0.03,10.31,-0.02,0.01,0.0,19.59,466.87,-1317.02,-1727.39,1755694618.6496656,13:56:58
574934.0,66.0,99.0,99.0,3.0,0.1,0.05,10.33,-0.02,0.01,0.0,19.59,466.87,-1317.02,-1727.17,1755694618.6994305,13:56:58
574955.0,66.0,99.0,99.0,3.0,0.09,0.03,10.3,-0.02,0.01,0.0,19.57,466.87,-1317.02,-1726.96,1755694618.9091444,13:56:58
574977.0,66.0,99.0,99.0,3.0,0.11,0.03,10.32,-0.02,0.01,0.0,19.58,466.87,-1317.02,-1726.73,1755694618.9595044,13:56:58
574998.0,66.0,99.0,99.0,3.0,0.11,0.04,10.28,-0.02,0.01,0.0,19.59,466.88,-1317.02,-1726.51,1755694619.1172962,13:56:59
575019.0,66.0,99.0,99.0,3.0,0.11,0.04,10.3,-0.02,0.01,0.0,19.61,466.88,-1317.02,-1726.3,1755694619.1707864,13:56:59
575041.0,66.0,99.0,99.0,3.0,0.1,0.04,10.3,-0.02,0.01,0.0,19.59,466.88,-1317.02,-1726.07,1755694619.313893,13:56:59
575062.0,66.0,99.0,99.0,3.0,0.12,0.03,10.33,-0.03,0.01,0.0,19.58,466.88,-1317.02,-1725.85,1755694619.4188628,13:56:59
575084.0,66.0,99.0,99.0,3.0,0.11,0.02,10.3,-0.02,0.01,0.0,19.59,466.88,-1317.02,-1725.63,1755694619.4790998,13:56:59
575105.0,66.0,99.0,99.0,3.0,0.11,0.04,10.31,-0.03,0.01,0.0,19.58,466.89,-1317.02,-1725.41,1755694619.6257892,13:56:59
575126.0,66.0,99.0,99.0,3.0,0.11,0.02,10.31,-0.02,0.01,0.0,19.59,466.89,-1317.02,-1725.19,1755694619.7280262,13:56:59
575148.0,66.0,99.0,99.0,3.0,0.11,0.03,10.32,-0.02,0.01,0.0,19.6,466.89,-1317.02,-1724.97,1755694619.7801964,13:56:59
575169.0,66.0,99.0,99.0,3.0,0.11,0.04,10.29,-0.02,0.01,0.0,19.59,466.89,-1317.01,-1724.75,1755694619.9300869,13:56:59
575191.0,66.0,99.0,99.0,3.0,0.1,0.02,10.3,-0.02,0.01,0.0,19.59,466.9,-1317.01,-1724.52,1755694620.0334907,13:57:00
575212.0,66.0,99.0,99.0,3.0,0.11,0.05,10.28,-0.02,0.01,0.0,19.59,466.9,-1317.01,-1724.31,1755694620.088185,13:57:00
575233.0,66.0,99.0,99.0,3.0,0.1,0.02,10.29,-0.02,0.01,0.0,19.6,466.9,-1317.01,-1724.09,1755694620.160683,13:57:00
575254.0,66.0,99.0,99.0,3.0,0.11,0.04,10.3,-0.02,0.01,0.0,19.59,466.9,-1317.01,-1723.88,1755694620.2391195,13:57:00
575275.0,66.0,99.0,99.0,3.0,0.1,0.03,10.3,-0.02,0.01,0.01,19.59,466.9,-1317.01,-1723.66,1755694620.34237,13:57:00
575296.0,66.0,99.0,99.0,3.0,0.12,0.03,10.31,-0.02,0.01,0.0,19.59,466.91,-1317.01,-1723.44,1755694620.3952131,13:57:00
575317.0,66.0,99.0,99.0,3.0,0.1,0.03,10.3,-0.02,0.01,0.0,19.59,466.91,-1317.01,-1723.23,1755694620.4487367,13:57:00
575338.0,66.0,99.0,99.0,3.0,0.11,0.04,10.3,-0.02,0.01,0.0,19.59,466.91,-1317.01,-1723.01,1755694620.5454156,13:57:00
575359.0,66.0,100.0,99.0,3.0,0.11,0.05,10.3,-0.02,0.01,0.0,19.6,466.91,-1317.01,-1722.79,1755694620.6484559,13:57:00
575380.0,66.0,100.0,99.0,3.0,0.11,0.04,10.29,-0.02,0.01,0.0,19.61,466.92,-1317.01,-1722.58,1755694620.7029917,13:57:00
575401.0,66.0,99.0,99.0,3.0,0.11,0.03,10.29,-0.02,0.01,0.0,19.59,466.92,-1317.01,-1722.36,1755694620.8531795,13:57:00
575423.0,66.0,99.0,99.0,3.0,0.11,0.02,10.3,-0.03,0.01,0.0,19.6,466.92,-1317.01,-1722.14,1755694620.9547098,13:57:00
575444.0,66.0,99.0,99.0,3.0,0.1,0.02,10.28,-0.02,0.01,0.0,19.6,466.92,-1317.0,-1721.92,1755694621.0045757,13:57:01
575465.0,66.0,99.0,99.0,3.0,0.11,0.03,10.31,-0.02,0.01,0.0,19.59,466.93,-1317.0,-1721.7,1755694621.1596534,13:57:01
575486.0,66.0,99.0,99.0,3.0,0.1,0.03,10.29,-0.02,0.01,0.0,19.59,466.93,-1317.0,-1721.49,1755694621.259901,13:57:01
575508.0,66.0,100.0,99.0,3.0,0.11,0.05,10.3,-0.02,0.01,0.0,19.59,466.93,-1317.0,-1721.26,1755694621.3174691,13:57:01
575530.0,66.0,100.0,99.0,3.0,0.11,0.03,10.3,-0.02,0.01,0.0,19.59,466.93,-1317.0,-1721.03,1755694621.4664955,13:57:01
575551.0,66.0,100.0,99.0,3.0,0.11,0.05,10.3,-0.02,0.01,0.0,19.59,466.93,-1317.0,-1720.82,1755694621.5208738,13:57:01
575573.0,66.0,100.0,99.0,3.0,0.12,0.05,10.31,-0.02,0.01,0.0,19.6,466.94,-1317.0,-1720.59,1755694621.6764004,13:57:01
575594.0,66.0,100.0,99.0,3.0,0.11,0.04,10.3,-0.02,0.01,0.0,19.58,466.94,-1317.0,-1720.37,1755694621.7369146,13:57:01
575616.0,66.0,100.0,99.0,3.0,0.11,0.03,10.27,-0.02,0.01,0.0,19.6,466.94,-1317.0,-1720.15,1755694621.8763292,13:57:01
575637.0,66.0,100.0,99.0,3.0,0.09,0.03,10.3,-0.03,0.01,0.0,19.62,466.94,-1317.0,-1719.93,1755694621.9290054,13:57:01
575658.0,66.0,100.0,99.0,3.0,0.1,0.03,10.29,-0.02,0.01,0.0,19.59,466.95,-1317.0,-1719.72,1755694622.1177926,13:57:02
575680.0,66.0,100.0,99.0,3.0,0.13,0.04,10.31,-0.02,0.01,0.0,19.59,466.95,-1317.0,-1719.49,1755694622.28999,13:57:02
575701.0,66.0,100.0,99.0,3.0,0.12,0.04,10.32,-0.02,0.01,0.01,19.6,466.95,-1317.0,-1719.27,1755694622.3892767,13:57:02
575723.0,66.0,100.0,99.0,3.0,0.11,0.03,10.3,-0.02,0.01,0.0,19.6,466.95,-1316.99,-1719.05,1755694622.4919217,13:57:02
575744.0,66.0,100.0,99.0,3.0,0.09,0.04,10.3,-0.02,0.01,0.0,19.59,466.96,-1316.99,-1718.83,1755694622.592084,13:57:02
575765.0,66.0,100.0,99.0,3.0,0.11,0.03,10.3,-0.02,0.01,0.0,19.6,466.96,-1316.99,-1718.61,1755694622.7049768,13:57:02
575786.0,66.0,100.0,99.0,3.0,0.1,0.04,10.3,-0.02,0.01,0.0,19.6,466.96,-1316.99,-1718.4,1755694622.8020167,13:57:02
575807.0,66.0,100.0,99.0,3.0,0.12,0.02,10.32,-0.02,0.01,0.01,19.59,466.96,-1316.99,-1718.18,1755694622.900036,13:57:02
575829.0,66.0,100.0,99.0,3.0,0.11,0.04,10.32,-0.02,0.01,0.0,19.59,466.97,-1316.99,-1717.95,1755694622.955614,13:57:02
575850.0,66.0,100.0,99.0,3.0,0.12,0.03,10.3,-0.02,0.01,0.0,19.59,466.97,-1316.99,-1717.74,1755694623.1042063,13:57:03
575872.0,66.0,100.0,99.0,3.0,0.09,0.05,10.3,-0.02,0.01,0.0,19.59,466.97,-1316.99,-1717.51,1755694623.205145,13:57:03
575893.0,66.0,100.0,99.0,3.0,0.11,0.05,10.3,-0.02,0.01,0.0,19.59,466.97,-1316.99,-1717.29,1755694623.308815,13:57:03
575915.0,66.0,100.0,99.0,3.0,0.11,0.05,10.29,-0.02,0.01,0.0,19.59,466.97,-1316.99,-1717.07,1755694623.4167938,13:57:03
575936.0,66.0,100.0,99.0,3.0,0.11,0.03,10.31,-0.02,0.01,0.0,19.6,466.98,-1316.99,-1716.85,1755694623.4686794,13:57:03
575957.0,66.0,100.0,99.0,3.0,0.12,0.04,10.28,-0.02,0.01,0.0,19.58,466.98,-1316.99,-1716.63,1755694623.519343,13:57:03
575978.0,66.0,100.0,99.0,3.0,0.11,0.02,10.27,-0.02,0.01,0.0,19.59,466.98,-1316.98,-1716.42,1755694623.6202698,13:57:03
575999.0,66.0,100.0,99.0,3.0,0.11,0.03,10.3,-0.02,0.01,0.0,19.58,466.98,-1316.98,-1716.2,1755694623.7203443,13:57:03
576021.0,66.0,100.0,99.0,3.0,0.11,0.03,10.3,-0.02,0.01,0.0,19.58,466.99,-1316.98,-1715.98,1755694623.7700844,13:57:03
576043.0,66.0,100.0,99.0,3.0,0.1,0.04,10.31,-0.02,0.01,0.0,19.59,466.99,-1316.98,-1715.75,1755694623.823803,13:57:03
576064.0,66.0,100.0,99.0,3.0,0.12,0.05,10.31,-0.02,0.01,0.0,19.59,466.99,-1316.98,-1715.53,1755694623.9234939,13:57:03
576086.0,66.0,100.0,99.0,3.0,0.11,0.03,10.28,-0.02,0.01,0.0,19.59,466.99,-1316.98,-1715.31,1755694624.0247667,13:57:04
576107.0,66.0,100.0,99.0,3.0,0.12,0.03,10.34,-0.02,0.01,0.0,19.61,467.0,-1316.98,-1715.09,1755694624.134323,13:57:04
576128.0,66.0,100.0,99.0,3.0,0.09,0.04,10.28,-0.02,0.01,0.0,19.6,467.0,-1316.98,-1714.87,1755694624.2346277,13:57:04
576150.0,66.0,100.0,99.0,3.0,0.09,0.03,10.29,-0.02,0.01,0.01,19.59,467.0,-1316.98,-1714.65,1755694624.2937386,13:57:04
576171.0,66.0,100.0,99.0,3.0,0.11,0.02,10.31,-0.02,0.01,0.0,19.58,467.0,-1316.98,-1714.43,1755694624.3562863,13:57:04
576192.0,66.0,100.0,99.0,3.0,0.11,0.0,10.29,-0.02,0.01,0.01,19.6,467.0,-1316.98,-1714.21,1755694624.4413197,13:57:04
576213.0,66.0,100.0,99.0,3.0,0.12,0.05,10.29,-0.02,0.01,0.0,19.6,467.01,-1316.98,-1714.0,1755694624.538148,13:57:04
576235.0,66.0,100.0,99.0,3.0,0.11,0.04,10.31,-0.02,0.01,0.0,19.62,467.01,-1316.98,-1713.77,1755694624.6420205,13:57:04
576256.0,66.0,100.0,99.0,3.0,0.11,0.04,10.31,-0.02,0.01,0.0,19.58,467.01,-1316.98,-1713.56,1755694624.7462034,13:57:04
576277.0,66.0,100.0,99.0,3.0,0.11,0.06,10.3,-0.02,0.01,0.0,19.6,467.01,-1316.97,-1713.34,1755694624.8442197,13:57:04
576299.0,66.0,100.0,99.0,3.0,0.11,0.02,10.28,-0.02,0.01,0.0,19.61,467.02,-1316.97,-1713.11,1755694624.9512146,13:57:04
576320.0,66.0,100.0,99.0,3.0,0.12,0.04,10.29,-0.02,0.01,0.0,19.61,467.02,-1316.97,-1712.9,1755694625.0013797,13:57:05
576342.0,66.0,100.0,99.0,3.0,0.11,0.04,10.27,-0.03,0.01,0.0,19.59,467.02,-1316.97,-1712.67,1755694625.0582294,13:57:05
576363.0,66.0,100.0,99.0,3.0,0.11,0.02,10.29,-0.02,0.01,0.0,19.6,467.02,-1316.97,-1712.45,1755694625.1096003,13:57:05
576384.0,66.0,100.0,99.0,3.0,0.11,0.05,10.28,-0.02,0.01,0.0,19.58,467.03,-1316.97,-1712.24,1755694625.1737864,13:57:05
576405.0,66.0,100.0,99.0,3.0,0.12,0.02,10.29,-0.02,0.01,0.0,19.59,467.03,-1316.97,-1712.02,1755694625.254875,13:57:05
576427.0,66.0,100.0,99.0,3.0,0.1,0.02,10.28,-0.02,0.01,0.0,19.59,467.03,-1316.97,-1711.8,1755694625.3582623,13:57:05
576449.0,66.0,100.0,99.0,3.0,0.09,0.01,10.28,-0.02,0.01,0.0,19.59,467.03,-1316.97,-1711.57,1755694625.5646067,13:57:05
576470.0,66.0,100.0,99.0,3.0,0.1,0.04,10.29,-0.02,0.01,0.0,19.59,467.03,-1316.97,-1711.35,1755694625.614278,13:57:05
576491.0,66.0,100.0,99.0,3.0,0.08,0.03,10.31,-0.02,0.01,0.0,19.59,467.04,-1316.97,-1711.14,1755694625.6786218,13:57:05
576512.0,66.0,100.0,99.0,3.0,0.12,0.04,10.31,-0.02,0.01,0.0,19.59,467.04,-1316.97,-1710.92,1755694625.7667766,13:57:05
576534.0,66.0,100.0,99.0,3.0,0.11,0.04,10.3,-0.02,0.01,0.0,19.59,467.04,-1316.97,-1710.69,1755694625.8446896,13:57:05
576556.0,66.0,100.0,99.0,3.0,0.11,0.04,10.29,-0.02,0.01,0.0,19.59,467.04,-1316.97,-1710.47,1755694625.902859,13:57:05
576577.0,66.0,100.0,99.0,3.0,0.11,0.04,10.31,-0.02,0.01,0.0,19.59,467.05,-1316.96,-1710.25,1755694625.9550505,13:57:05
576598.0,66.0,100.0,99.0,3.0,0.1,0.04,10.3,-0.02,0.01,0.0,19.59,467.05,-1316.96,-1710.04,1755694626.0176156,13:57:06
576619.0,66.0,100.0,99.0,3.0,0.11,0.04,10.28,-0.02,0.01,0.01,19.58,467.05,-1316.96,-1709.82,1755694626.1771717,13:57:06
576640.0,66.0,100.0,99.0,3.0,0.08,0.04,10.31,-0.02,0.01,0.0,19.59,467.05,-1316.96,-1709.6,1755694626.2809858,13:57:06
576661.0,66.0,100.0,99.0,3.0,0.12,0.05,10.3,-0.02,0.01,0.0,19.6,467.05,-1316.96,-1709.39,1755694626.3827822,13:57:06
576683.0,66.0,100.0,99.0,3.0,0.11,0.04,10.31,-0.02,0.01,0.0,19.62,467.06,-1316.96,-1709.16,1755694626.435669,13:57:06
576704.0,66.0,100.0,99.0,3.0,0.1,0.04,10.3,-0.02,0.01,0.0,19.6,467.06,-1316.96,-1708.94,1755694626.6100404,13:57:06
576725.0,66.0,100.0,99.0,3.0,0.11,0.02,10.28,-0.02,0.01,0.0,19.59,467.06,-1316.96,-1708.73,1755694626.6627636,13:57:06
576746.0,66.0,100.0,99.0,3.0,0.11,0.04,10.29,-0.02,0.01,0.0,19.59,467.06,-1316.96,-1708.51,1755694626.7266006,13:57:06
576767.0,66.0,100.0,99.0,3.0,0.11,0.03,10.3,-0.02,0.01,0.0,19.59,467.07,-1316.96,-1708.3,1755694626.8989997,13:57:06
576788.0,66.0,100.0,99.0,3.0,0.08,0.04,10.29,-0.02,0.01,0.0,19.59,467.07,-1316.96,-1708.08,1755694626.9534423,13:57:06
576809.0,66.0,100.0,99.0,3.0,0.12,0.03,10.31,-0.02,0.01,0.01,19.6,467.07,-1316.96,-1707.86,1755694627.1137297,13:57:07
576831.0,66.0,100.0,99.0,3.0,0.11,0.01,10.3,-0.02,0.01,0.0,19.61,467.07,-1316.96,-1707.64,1755694627.2161837,13:57:07
576853.0,66.0,100.0,99.0,3.0,0.11,0.03,10.3,-0.02,0.01,0.0,19.59,467.08,-1316.95,-1707.41,1755694627.3042932,13:57:07
576874.0,66.0,100.0,99.0,3.0,0.11,0.05,10.3,-0.03,0.01,0.0,19.59,467.08,-1316.95,-1707.19,1755694627.4156442,13:57:07
576895.0,66.0,100.0,99.0,3.0,0.13,0.05,10.29,-0.02,0.01,0.0,19.6,467.08,-1316.95,-1706.98,1755694627.4666255,13:57:07
576916.0,66.0,100.0,99.0,3.0,0.12,0.03,10.28,-0.02,0.01,0.0,19.6,467.08,-1316.95,-1706.76,1755694627.517664,13:57:07
576937.0,66.0,100.0,99.0,3.0,0.1,0.03,10.3,-0.02,0.01,0.0,19.6,467.09,-1316.95,-1706.55,1755694627.6108382,13:57:07
576959.0,66.0,100.0,99.0,3.0,0.12,0.04,10.31,-0.02,0.01,0.0,19.6,467.09,-1316.95,-1706.32,1755694627.6668851,13:57:07
576980.0,66.0,100.0,99.0,3.0,0.11,0.04,10.31,-0.02,0.01,0.0,19.59,467.09,-1316.95,-1706.1,1755694627.8175964,13:57:07
577002.0,66.0,100.0,99.0,3.0,0.12,0.03,10.3,-0.03,0.01,0.0,19.59,467.09,-1316.95,-1705.88,1755694627.877413,13:57:07
577023.0,66.0,100.0,99.0,3.0,0.12,0.02,10.33,-0.02,0.01,0.0,19.59,467.1,-1316.95,-1705.66,1755694627.935142,13:57:07
577044.0,66.0,100.0,99.0,3.0,0.11,0.04,10.3,-0.02,0.01,0.0,19.59,467.1,-1316.95,-1705.44,1755694628.0270185,13:57:08
577065.0,66.0,100.0,99.0,3.0,0.09,0.04,10.28,-0.02,0.01,0.0,19.59,467.1,-1316.95,-1705.23,1755694628.0845387,13:57:08
577086.0,66.0,100.0,99.0,3.0,0.12,0.02,10.32,-0.02,0.01,0.0,19.59,467.1,-1316.95,-1705.01,1755694628.2250643,13:57:08
577107.0,66.0,100.0,99.0,3.0,0.11,0.03,10.31,-0.03,0.01,0.0,19.59,467.1,-1316.95,-1704.79,1755694628.3289793,13:57:08
577128.0,66.0,100.0,99.0,3.0,0.11,0.06,10.29,-0.02,0.01,0.0,19.59,467.11,-1316.94,-1704.58,1755694628.426197,13:57:08
577151.0,66.0,100.0,99.0,3.0,0.11,0.03,10.3,-0.02,0.01,0.0,19.58,467.11,-1316.94,-1704.34,1755694628.5335145,13:57:08
577172.0,66.0,100.0,99.0,3.0,0.11,0.03,10.3,-0.02,0.01,0.0,19.58,467.11,-1316.94,-1704.12,1755694628.6378186,13:57:08
577193.0,66.0,100.0,99.0,3.0,0.1,0.02,10.29,-0.02,0.01,0.0,19.59,467.11,-1316.94,-1703.91,1755694628.7352989,13:57:08
577215.0,66.0,100.0,99.0,3.0,0.11,0.04,10.31,-0.02,0.01,0.0,19.57,467.12,-1316.94,-1703.68,1755694628.8463707,13:57:08
577236.0,66.0,100.0,99.0,3.0,0.1,0.04,10.3,-0.02,0.01,0.0,19.6,467.12,-1316.94,-1703.46,1755694628.9415803,13:57:08
577257.0,66.0,100.0,99.0,3.0,0.1,0.02,10.28,-0.03,0.01,0.0,19.6,467.12,-1316.94,-1703.25,1755694629.044456,13:57:09
577278.0,66.0,100.0,99.0,3.0,0.09,0.02,10.3,-0.02,0.01,0.0,19.59,467.12,-1316.94,-1703.03,1755694629.096962,13:57:09
577299.0,66.0,100.0,99.0,3.0,0.1,0.02,10.3,-0.03,0.01,0.0,19.58,467.12,-1316.94,-1702.82,1755694629.1469853,13:57:09
577320.0,66.0,100.0,99.0,3.0,0.12,0.03,10.29,-0.02,0.01,0.0,19.58,467.13,-1316.94,-1702.6,1755694629.255432,13:57:09
577342.0,66.0,100.0,99.0,3.0,0.12,0.03,10.31,-0.02,0.01,0.0,19.59,467.13,-1316.94,-1702.37,1755694629.332317,13:57:09
577363.0,66.0,100.0,99.0,3.0,0.11,0.02,10.28,-0.03,0.01,0.0,19.59,467.13,-1316.94,-1702.16,1755694629.3947384,13:57:09
577385.0,66.0,100.0,99.0,3.0,0.11,0.03,10.31,-0.02,0.01,0.0,19.59,467.13,-1316.94,-1701.93,1755694629.555239,13:57:09
577406.0,66.0,100.0,99.0,3.0,0.12,0.03,10.3,-0.02,0.01,0.0,19.58,467.14,-1316.94,-1701.71,1755694629.676985,13:57:09
577427.0,66.0,100.0,99.0,3.0,0.1,0.02,10.32,-0.02,0.01,0.01,19.6,467.14,-1316.94,-1701.5,1755694629.7703798,13:57:09
577448.0,66.0,100.0,99.0,3.0,0.12,0.05,10.33,-0.02,0.01,0.0,19.6,467.14,-1316.93,-1701.28,1755694629.8246276,13:57:09
577470.0,66.0,100.0,99.0,3.0,0.1,0.02,10.3,-0.02,0.01,0.0,19.59,467.14,-1316.93,-1701.05,1755694629.9683964,13:57:09
577491.0,66.0,100.0,99.0,3.0,0.11,0.04,10.3,-0.03,0.01,0.0,19.59,467.15,-1316.93,-1700.84,1755694630.078424,13:57:10
577513.0,66.0,100.0,99.0,3.0,0.11,0.03,10.32,-0.03,0.01,0.0,19.58,467.15,-1316.93,-1700.61,1755694630.1308534,13:57:10
577534.0,66.0,100.0,99.0,3.0,0.1,0.04,10.32,-0.02,0.01,0.0,19.61,467.15,-1316.93,-1700.39,1755694630.1972725,13:57:10
577556.0,66.0,100.0,99.0,3.0,0.1,0.02,10.31,-0.03,0.01,0.0,19.59,467.15,-1316.93,-1700.17,1755694630.39596,13:57:10
577578.0,66.0,100.0,99.0,3.0,0.1,0.02,10.31,-0.02,0.01,0.01,19.59,467.15,-1316.93,-1699.94,1755694630.478138,13:57:10
577599.0,66.0,100.0,99.0,3.0,0.09,0.05,10.29,-0.03,0.01,0.0,19.6,467.16,-1316.93,-1699.72,1755694630.5341427,13:57:10
577620.0,66.0,100.0,99.0,3.0,0.11,0.04,10.3,-0.02,0.01,0.0,19.61,467.16,-1316.93,-1699.51,1755694630.5939555,13:57:10
577641.0,66.0,100.0,99.0,3.0,0.11,0.05,10.28,-0.02,0.01,0.0,19.59,467.16,-1316.93,-1699.29,1755694630.6900978,13:57:10
577663.0,66.0,100.0,99.0,3.0,0.11,0.03,10.26,-0.02,0.01,0.0,19.59,467.16,-1316.93,-1699.07,1755694630.7841141,13:57:10
577684.0,66.0,100.0,99.0,3.0,0.11,0.02,10.27,-0.02,0.01,0.01,19.59,467.17,-1316.93,-1698.85,1755694630.8404486,13:57:10
577705.0,66.0,100.0,99.0,3.0,0.1,0.03,10.3,-0.02,0.01,0.0,19.59,467.17,-1316.93,-1698.63,1755694630.9925818,13:57:10
577728.0,66.0,100.0,99.0,3.0,0.11,0.03,10.3,-0.02,0.01,0.0,19.6,467.17,-1316.93,-1698.4,1755694631.0505276,13:57:11
