arduino_ms,PPG_HR,PPG_O2,PPG_Conf,PPG_Status,MPU_AccelX,MPU_AccelY,MPU_AccelZ,MPU_GyroX,MPU_GyroY,MPU_GyroZ,MPU_Temp,MPU_VelX,MPU_VelY,MPU_VelZ,py_timestamp,real_time
475935.0,64.0,100.0,99.0,3.0,0.16,-0.06,10.32,-0.03,0.01,0.01,19.14,79.9,-23.06,4823.13,1755695684.8663614,14:14:44
475956.0,64.0,100.0,99.0,3.0,0.17,-0.03,10.33,-0.03,0.01,0.01,19.16,79.9,-23.06,4823.35,1755695684.9149837,14:14:44
475978.0,64.0,100.0,99.0,3.0,0.17,-0.05,10.31,-0.03,0.01,0.0,19.14,79.9,-23.06,4823.58,1755695684.9630592,14:14:44
475999.0,64.0,100.0,99.0,3.0,0.16,-0.04,10.31,-0.03,0.01,0.01,19.16,79.91,-23.07,4823.79,1755695685.0122163,14:14:45
476020.0,64.0,100.0,99.0,3.0,0.18,-0.05,10.31,-0.03,0.01,0.01,19.16,79.91,-23.07,4824.01,1755695685.0612652,14:14:45
476042.0,64.0,100.0,99.0,3.0,0.17,-0.05,10.33,-0.03,0.01,0.0,19.16,79.91,-23.07,4824.24,1755695685.1105285,14:14:45
476063.0,64.0,100.0,99.0,3.0,0.16,-0.07,10.31,-0.03,0.01,0.01,19.16,79.92,-23.07,4824.45,1755695685.1584086,14:14:45
476084.0,64.0,100.0,99.0,3.0,0.17,-0.05,10.32,-0.02,0.01,0.01,19.14,79.92,-23.07,4824.67,1755695685.2086992,14:14:45
476106.0,64.0,100.0,99.0,3.0,0.19,-0.06,10.3,-0.03,0.01,0.0,19.14,79.93,-23.07,4824.9,1755695685.2586813,14:14:45
476127.0,64.0,100.0,99.0,3.0,0.17,-0.05,10.33,-0.03,0.01,0.0,19.16,79.93,-23.07,4825.11,1755695685.309003,14:14:45
476150.0,64.0,100.0,99.0,3.0,0.16,-0.05,10.31,-0.03,0.01,0.01,19.14,79.93,-23.07,4825.35,1755695685.3591325,14:14:45
476171.0,64.0,100.0,99.0,3.0,0.16,-0.05,10.32,-0.03,0.01,0.01,19.15,79.94,-23.07,4825.57,1755695685.4096978,14:14:45
476192.0,64.0,100.0,99.0,3.0,0.16,-0.06,10.32,-0.03,0.01,0.0,19.13,79.94,-23.08,4825.78,1755695685.4584105,14:14:45
476214.0,64.0,100.0,99.0,3.0,0.2,-0.05,10.32,-0.02,0.01,0.01,19.15,79.94,-23.08,4826.01,1755695685.510005,14:14:45
476235.0,64.0,100.0,99.0,3.0,0.15,-0.06,10.33,-0.02,0.01,0.01,19.15,79.95,-23.08,4826.23,1755695685.5681164,14:14:45
476256.0,64.0,100.0,99.0,3.0,0.16,-0.06,10.3,-0.03,0.01,0.0,19.12,79.95,-23.08,4826.44,1755695685.7085834,14:14:45
476277.0,64.0,100.0,99.0,3.0,0.17,-0.05,10.32,-0.03,0.01,0.01,19.15,79.95,-23.08,4826.66,1755695685.7587423,14:14:45
476298.0,64.0,100.0,99.0,3.0,0.15,-0.03,10.32,-0.02,0.01,0.0,19.14,79.96,-23.08,4826.88,1755695685.8175457,14:14:45
476320.0,64.0,100.0,99.0,3.0,0.14,-0.05,10.3,-0.02,0.01,0.0,19.15,79.96,-23.08,4827.1,1755695685.8670778,14:14:45
476342.0,64.0,100.0,99.0,3.0,0.16,-0.04,10.3,-0.03,0.01,0.01,19.15,79.96,-23.08,4827.33,1755695685.9215033,14:14:45
476363.0,64.0,100.0,99.0,3.0,0.17,-0.06,10.32,-0.03,0.01,0.0,19.13,79.97,-23.08,4827.55,1755695685.9788399,14:14:45
476385.0,64.0,100.0,99.0,3.0,0.17,-0.04,10.32,-0.03,0.01,0.01,19.15,79.97,-23.09,4827.77,1755695686.1152534,14:14:46
476406.0,64.0,100.0,99.0,3.0,0.17,-0.05,10.3,-0.03,0.01,0.01,19.15,79.97,-23.09,4827.99,1755695686.163885,14:14:46
476428.0,64.0,100.0,99.0,3.0,0.16,-0.05,10.33,-0.02,0.01,0.01,19.14,79.98,-23.09,4828.22,1755695686.2157156,14:14:46
476449.0,64.0,100.0,99.0,3.0,0.18,-0.05,10.3,-0.03,0.01,0.0,19.14,79.98,-23.09,4828.43,1755695686.2749655,14:14:46
476470.0,64.0,100.0,99.0,3.0,0.19,-0.04,10.33,-0.03,0.01,0.0,19.15,79.99,-23.09,4828.65,1755695686.3331716,14:14:46
476492.0,64.0,100.0,99.0,3.0,0.16,-0.06,10.33,-0.02,0.01,0.0,19.14,79.99,-23.09,4828.88,1755695686.3808875,14:14:46
476513.0,64.0,100.0,99.0,3.0,0.17,-0.06,10.35,-0.03,0.01,0.01,19.15,79.99,-23.09,4829.1,1755695686.4325724,14:14:46
476535.0,64.0,100.0,99.0,3.0,0.16,-0.04,10.31,-0.03,0.01,0.0,19.13,80.0,-23.09,4829.32,1755695686.482056,14:14:46
476557.0,64.0,100.0,99.0,3.0,0.15,-0.05,10.3,-0.03,0.01,0.0,19.13,80.0,-23.09,4829.55,1755695686.5330062,14:14:46
476579.0,64.0,100.0,99.0,3.0,0.18,-0.06,10.3,-0.03,0.01,0.01,19.14,80.0,-23.1,4829.78,1755695686.583033,14:14:46
476600.0,65.0,100.0,99.0,3.0,0.16,-0.06,10.34,-0.03,0.01,0.01,19.16,80.01,-23.1,4829.99,1755695686.6321929,14:14:46
476621.0,65.0,100.0,99.0,3.0,0.15,-0.06,10.3,-0.02,0.01,0.0,19.15,80.01,-23.1,4830.21,1755695686.6831274,14:14:46
476643.0,65.0,100.0,99.0,3.0,0.18,-0.04,10.31,-0.03,0.01,0.01,19.14,80.01,-23.1,4830.44,1755695686.73385,14:14:46
476664.0,65.0,100.0,99.0,3.0,0.18,-0.05,10.33,-0.03,0.01,0.01,19.14,80.02,-23.1,4830.65,1755695686.783161,14:14:46
476686.0,65.0,100.0,99.0,3.0,0.15,-0.03,10.31,-0.03,0.01,0.0,19.14,80.02,-23.1,4830.88,1755695686.8306856,14:14:46
476707.0,65.0,100.0,99.0,3.0,0.17,-0.06,10.3,-0.03,0.01,0.0,19.15,80.02,-23.1,4831.1,1755695686.883759,14:14:46
476729.0,65.0,100.0,99.0,3.0,0.18,-0.05,10.32,-0.03,0.01,0.01,19.14,80.03,-23.1,4831.32,1755695686.9418812,14:14:46
476751.0,65.0,100.0,99.0,3.0,0.17,-0.05,10.33,-0.03,0.01,0.01,19.14,80.03,-23.1,4831.55,1755695687.0049715,14:14:47
476772.0,65.0,100.0,99.0,3.0,0.18,-0.07,10.32,-0.03,0.01,0.01,19.14,80.04,-23.11,4831.77,1755695687.0577278,14:14:47
476794.0,65.0,100.0,99.0,3.0,0.16,-0.04,10.3,-0.03,0.01,0.0,19.14,80.04,-23.11,4831.99,1755695687.1086879,14:14:47
476815.0,65.0,100.0,99.0,3.0,0.18,-0.04,10.33,-0.02,0.01,0.0,19.13,80.04,-23.11,4832.21,1755695687.160139,14:14:47
476836.0,65.0,100.0,99.0,3.0,0.18,-0.03,10.31,-0.03,0.01,0.01,19.14,80.05,-23.11,4832.43,1755695687.241477,14:14:47
476858.0,65.0,100.0,99.0,3.0,0.15,-0.05,10.31,-0.02,0.01,0.01,19.14,80.05,-23.11,4832.66,1755695687.293151,14:14:47
476879.0,65.0,100.0,99.0,3.0,0.16,-0.04,10.3,-0.03,0.01,0.0,19.16,80.05,-23.11,4832.87,1755695687.3427722,14:14:47
476901.0,65.0,100.0,99.0,3.0,0.18,-0.07,10.28,-0.02,0.01,0.0,19.12,80.06,-23.11,4833.1,1755695687.392905,14:14:47
476922.0,65.0,100.0,99.0,3.0,0.16,-0.05,10.34,-0.02,0.01,0.0,19.13,80.06,-23.11,4833.31,1755695687.4436555,14:14:47
476944.0,65.0,100.0,99.0,3.0,0.18,-0.05,10.32,-0.03,0.01,0.0,19.13,80.07,-23.11,4833.54,1755695687.4926364,14:14:47
476965.0,65.0,100.0,99.0,3.0,0.16,-0.07,10.33,-0.03,0.01,0.0,19.14,80.07,-23.12,4833.76,1755695687.5439467,14:14:47
476986.0,65.0,100.0,99.0,3.0,0.17,-0.06,10.32,-0.03,0.01,0.0,19.14,80.07,-23.12,4833.98,1755695687.5944428,14:14:47
477008.0,65.0,100.0,99.0,3.0,0.17,-0.06,10.3,-0.03,0.01,0.01,19.14,80.08,-23.12,4834.2,1755695687.6458466,14:14:47
477029.0,65.0,100.0,99.0,3.0,0.15,-0.06,10.31,-0.03,0.01,0.0,19.14,80.08,-23.12,4834.42,1755695687.6959543,14:14:47
477051.0,65.0,100.0,99.0,3.0,0.18,-0.04,10.32,-0.02,0.01,0.01,19.14,80.08,-23.12,4834.65,1755695687.7515028,14:14:47
477072.0,65.0,100.0,99.0,3.0,0.16,-0.03,10.3,-0.02,0.01,0.01,19.14,80.09,-23.12,4834.86,1755695687.807078,14:14:47
477094.0,65.0,100.0,99.0,3.0,0.17,-0.07,10.34,-0.03,0.01,0.0,19.15,80.09,-23.12,4835.09,1755695687.8568568,14:14:47
477115.0,65.0,100.0,99.0,3.0,0.17,-0.05,10.33,-0.03,0.01,0.0,19.13,80.09,-23.12,4835.31,1755695687.9120207,14:14:47
477137.0,65.0,100.0,99.0,3.0,0.15,-0.04,10.31,-0.02,0.01,0.01,19.14,80.1,-23.12,4835.53,1755695687.9606438,14:14:47
477159.0,65.0,100.0,99.0,3.0,0.18,-0.05,10.34,-0.03,0.01,0.0,19.13,80.1,-23.13,4835.76,1755695688.0095172,14:14:48
477180.0,65.0,100.0,99.0,3.0,0.19,-0.05,10.31,-0.02,0.01,0.0,19.13,80.11,-23.13,4835.98,1755695688.0571384,14:14:48
477201.0,65.0,100.0,99.0,3.0,0.16,-0.03,10.32,-0.03,0.01,0.0,19.15,80.11,-23.13,4836.19,1755695688.1057045,14:14:48
477222.0,65.0,100.0,99.0,3.0,0.17,-0.06,10.29,-0.03,0.01,0.0,19.13,80.11,-23.13,4836.41,1755695688.1553411,14:14:48
477243.0,65.0,100.0,99.0,3.0,0.16,-0.06,10.3,-0.02,0.01,0.01,19.16,80.12,-23.13,4836.63,1755695688.2094297,14:14:48
477265.0,65.0,100.0,99.0,3.0,0.17,-0.06,10.3,-0.03,0.01,0.0,19.16,80.12,-23.13,4836.85,1755695688.260817,14:14:48
477286.0,65.0,100.0,99.0,3.0,0.15,-0.03,10.31,-0.02,0.01,0.0,19.13,80.12,-23.13,4837.07,1755695688.3122618,14:14:48
477307.0,65.0,100.0,99.0,3.0,0.17,-0.04,10.33,-0.03,0.01,0.01,19.15,80.13,-23.13,4837.29,1755695688.362566,14:14:48
477329.0,65.0,100.0,99.0,3.0,0.18,-0.06,10.31,-0.03,0.01,0.0,19.15,80.13,-23.13,4837.51,1755695688.409956,14:14:48
477350.0,65.0,100.0,99.0,3.0,0.18,-0.05,10.32,-0.03,0.01,0.0,19.14,80.13,-23.13,4837.73,1755695688.4725418,14:14:48
477372.0,65.0,100.0,99.0,3.0,0.18,-0.05,10.3,-0.03,0.01,0.0,19.14,80.14,-23.14,4837.96,1755695688.5203118,14:14:48
477393.0,65.0,100.0,99.0,3.0,0.17,-0.03,10.3,-0.03,0.01,0.0,19.15,80.14,-23.14,4838.17,1755695688.5690913,14:14:48
477414.0,65.0,100.0,99.0,3.0,0.18,-0.04,10.33,-0.03,0.01,0.01,19.14,80.15,-23.14,4838.39,1755695688.6213338,14:14:48
477436.0,65.0,100.0,99.0,3.0,0.18,-0.06,10.32,-0.02,0.01,0.0,19.13,80.15,-23.14,4838.62,1755695688.6711845,14:14:48
477457.0,65.0,100.0,99.0,3.0,0.17,-0.04,10.3,-0.02,0.01,0.0,19.14,80.15,-23.14,4838.83,1755695688.7184033,14:14:48
477478.0,65.0,100.0,99.0,3.0,0.19,-0.06,10.29,-0.03,0.01,0.01,19.15,80.16,-23.14,4839.05,1755695688.7780979,14:14:48
477499.0,65.0,100.0,99.0,3.0,0.17,-0.04,10.32,-0.03,0.01,0.01,19.14,80.16,-23.14,4839.27,1755695688.8279846,14:14:48
477520.0,65.0,100.0,99.0,3.0,0.16,-0.05,10.32,-0.02,0.01,0.01,19.14,80.16,-23.14,4839.48,1755695688.8922873,14:14:48
477542.0,65.0,100.0,99.0,3.0,0.17,-0.06,10.3,-0.02,0.01,0.0,19.14,80.17,-23.14,4839.71,1755695688.9443846,14:14:48
477564.0,65.0,100.0,99.0,3.0,0.19,-0.06,10.29,-0.03,0.01,0.0,19.14,80.17,-23.14,4839.94,1755695688.9943557,14:14:48
477585.0,65.0,100.0,99.0,3.0,0.17,-0.04,10.34,-0.03,0.01,0.0,19.15,80.17,-23.15,4840.15,1755695689.0438027,14:14:49
477607.0,65.0,100.0,99.0,3.0,0.17,-0.04,10.33,-0.03,0.01,0.01,19.14,80.18,-23.15,4840.38,1755695689.097772,14:14:49
477628.0,65.0,100.0,99.0,3.0,0.17,-0.05,10.33,-0.02,0.01,0.01,19.15,80.18,-23.15,4840.6,1755695689.1457622,14:14:49
477650.0,65.0,100.0,99.0,3.0,0.18,-0.05,10.32,-0.02,0.01,0.0,19.14,80.19,-23.15,4840.82,1755695689.1955438,14:14:49
477672.0,65.0,100.0,99.0,3.0,0.17,-0.04,10.31,-0.02,0.01,0.01,19.15,80.19,-23.15,4841.05,1755695689.2442708,14:14:49
477693.0,66.0,99.0,99.0,3.0,0.19,-0.05,10.32,-0.03,0.01,0.01,19.16,80.19,-23.15,4841.27,1755695689.2922783,14:14:49
477715.0,66.0,99.0,99.0,3.0,0.19,-0.04,10.3,-0.02,0.01,0.01,19.16,80.2,-23.15,4841.5,1755695689.3451822,14:14:49
477736.0,66.0,99.0,99.0,3.0,0.16,-0.03,10.29,-0.03,0.01,0.01,19.14,80.2,-23.15,4841.71,1755695689.3948636,14:14:49
477758.0,66.0,99.0,99.0,3.0,0.15,-0.05,10.32,-0.03,0.01,0.01,19.15,80.2,-23.15,4841.94,1755695689.4447627,14:14:49
477779.0,66.0,99.0,99.0,3.0,0.16,-0.04,10.32,-0.02,0.01,0.0,19.13,80.21,-23.15,4842.16,1755695689.6030116,14:14:49
477800.0,66.0,99.0,99.0,3.0,0.17,-0.05,10.31,-0.02,0.01,0.0,19.15,80.21,-23.16,4842.37,1755695689.6565242,14:14:49
477822.0,66.0,99.0,99.0,3.0,0.18,-0.06,10.33,-0.02,0.01,0.01,19.14,80.22,-23.16,4842.6,1755695689.711491,14:14:49
477843.0,66.0,99.0,99.0,3.0,0.18,-0.04,10.3,-0.03,0.01,0.0,19.15,80.22,-23.16,4842.82,1755695689.78328,14:14:49
477865.0,66.0,99.0,99.0,3.0,0.17,-0.05,10.33,-0.03,0.01,0.01,19.15,80.22,-23.16,4843.04,1755695689.8430774,14:14:49
477886.0,66.0,99.0,99.0,3.0,0.17,-0.05,10.33,-0.02,0.01,0.01,19.14,80.23,-23.16,4843.26,1755695689.9336822,14:14:49
477908.0,66.0,99.0,99.0,3.0,0.16,-0.04,10.31,-0.02,0.01,0.01,19.13,80.23,-23.16,4843.49,1755695689.988741,14:14:49
477929.0,66.0,99.0,99.0,3.0,0.17,-0.05,10.31,-0.02,0.01,0.0,19.15,80.23,-23.16,4843.7,1755695690.0402575,14:14:50
477950.0,66.0,99.0,99.0,3.0,0.18,-0.04,10.29,-0.02,0.01,0.0,19.14,80.24,-23.16,4843.92,1755695690.101803,14:14:50
477972.0,66.0,99.0,99.0,3.0,0.18,-0.03,10.28,-0.03,0.01,0.01,19.17,80.24,-23.16,4844.15,1755695690.153372,14:14:50
477993.0,66.0,99.0,99.0,3.0,0.17,-0.05,10.31,-0.03,0.01,0.01,19.16,80.25,-23.16,4844.36,1755695690.2791169,14:14:50
478015.0,66.0,99.0,99.0,3.0,0.17,-0.05,10.34,-0.03,0.01,0.01,19.14,80.25,-23.17,4844.59,1755695690.3281431,14:14:50
478036.0,66.0,99.0,99.0,3.0,0.17,-0.03,10.3,-0.02,0.01,0.0,19.14,80.25,-23.17,4844.81,1755695690.3784583,14:14:50
478058.0,66.0,99.0,99.0,3.0,0.17,-0.05,10.34,-0.02,0.01,0.0,19.13,80.26,-23.17,4845.03,1755695690.4290874,14:14:50
478079.0,66.0,99.0,99.0,3.0,0.16,-0.06,10.36,-0.02,0.01,0.0,19.16,80.26,-23.17,4845.25,1755695690.4777527,14:14:50
478100.0,66.0,99.0,99.0,3.0,0.16,-0.06,10.3,-0.03,0.01,0.0,19.14,80.26,-23.17,4845.47,1755695690.6250067,14:14:50
478121.0,66.0,99.0,99.0,3.0,0.18,-0.03,10.31,-0.02,0.01,0.0,19.14,80.27,-23.17,4845.68,1755695690.6864572,14:14:50
478142.0,66.0,99.0,99.0,3.0,0.15,-0.04,10.33,-0.03,0.01,0.0,19.16,80.27,-23.17,4845.9,1755695690.7351909,14:14:50
478165.0,66.0,99.0,99.0,3.0,0.17,-0.03,10.3,-0.02,0.01,0.01,19.15,80.27,-23.17,4846.14,1755695690.7859662,14:14:50
478186.0,66.0,99.0,99.0,3.0,0.18,-0.03,10.31,-0.03,0.01,0.0,19.16,80.28,-23.17,4846.35,1755695690.8359241,14:14:50
478207.0,66.0,99.0,99.0,3.0,0.18,-0.05,10.3,-0.03,0.01,0.01,19.14,80.28,-23.17,4846.57,1755695690.8978455,14:14:50
478229.0,66.0,99.0,99.0,3.0,0.18,-0.07,10.3,-0.02,0.01,0.01,19.14,80.29,-23.18,4846.8,1755695690.9535837,14:14:50
478250.0,66.0,99.0,99.0,3.0,0.19,-0.05,10.31,-0.03,0.01,0.0,19.16,80.29,-23.18,4847.01,1755695691.0049295,14:14:51
478272.0,66.0,99.0,99.0,3.0,0.18,-0.07,10.33,-0.03,0.01,0.0,19.16,80.29,-23.18,4847.24,1755695691.060194,14:14:51
478293.0,66.0,99.0,99.0,3.0,0.18,-0.04,10.31,-0.03,0.01,0.0,19.16,80.3,-23.18,4847.46,1755695691.1132565,14:14:51
478315.0,66.0,99.0,99.0,3.0,0.15,-0.03,10.29,-0.03,0.01,0.0,19.14,80.3,-23.18,4847.68,1755695691.1642256,14:14:51
478336.0,66.0,99.0,99.0,3.0,0.18,-0.04,10.3,-0.02,0.01,0.0,19.14,80.3,-23.18,4847.9,1755695691.2156546,14:14:51
478357.0,66.0,99.0,99.0,3.0,0.16,-0.06,10.28,-0.03,0.01,0.0,19.14,80.31,-23.18,4848.12,1755695691.2701206,14:14:51
478379.0,66.0,99.0,99.0,3.0,0.19,-0.06,10.33,-0.03,0.01,0.0,19.13,80.31,-23.18,4848.34,1755695691.3196182,14:14:51
478400.0,66.0,99.0,99.0,3.0,0.18,-0.03,10.3,-0.02,0.01,0.0,19.16,80.32,-23.18,4848.56,1755695691.3815973,14:14:51
478422.0,66.0,99.0,99.0,3.0,0.17,-0.04,10.35,-0.03,0.01,0.01,19.16,80.32,-23.18,4848.79,1755695691.4314792,14:14:51
478443.0,66.0,99.0,99.0,3.0,0.17,-0.04,10.32,-0.02,0.01,0.0,19.14,80.32,-23.19,4849.0,1755695691.4824414,14:14:51
478464.0,66.0,99.0,99.0,3.0,0.18,-0.03,10.32,-0.02,0.01,0.01,19.15,80.33,-23.19,4849.22,1755695691.529209,14:14:51
478527.0,66.0,99.0,99.0,3.0,0.17,-0.03,10.32,-0.03,0.01,0.01,19.14,80.34,-23.19,4849.87,1755695691.6252081,14:14:51
478548.0,66.0,99.0,99.0,3.0,0.18,-0.05,10.32,-0.03,0.01,0.0,19.14,80.34,-23.19,4850.09,1755695691.6855683,14:14:51
478570.0,66.0,99.0,99.0,3.0,0.17,-0.03,10.35,-0.03,0.01,0.0,19.14,80.34,-23.19,4850.31,1755695691.735529,14:14:51
478592.0,66.0,99.0,99.0,3.0,0.15,-0.03,10.3,-0.03,0.01,0.01,19.15,80.35,-23.19,4850.54,1755695691.787104,14:14:51
478613.0,66.0,99.0,99.0,3.0,0.17,-0.06,10.31,-0.03,0.01,0.0,19.15,80.35,-23.19,4850.76,1755695691.8381941,14:14:51
478716.0,66.0,99.0,99.0,3.0,0.17,-0.06,10.31,-0.03,0.01,0.0,19.14,80.37,-23.2,4851.82,1755695691.9902737,14:14:51
478738.0,66.0,99.0,99.0,3.0,0.16,-0.04,10.34,-0.02,0.01,0.0,19.13,80.37,-23.2,4852.05,1755695692.047343,14:14:52
478759.0,66.0,99.0,99.0,3.0,0.17,-0.03,10.3,-0.03,0.01,0.0,19.14,80.38,-23.2,4852.26,1755695692.099477,14:14:52
478781.0,66.0,99.0,99.0,3.0,0.16,-0.05,10.3,-0.02,0.01,0.0,19.15,80.38,-23.2,4852.49,1755695692.1543336,14:14:52
478802.0,66.0,99.0,99.0,3.0,0.18,-0.04,10.31,-0.02,0.01,0.01,19.16,80.38,-23.2,4852.71,1755695692.20247,14:14:52
478823.0,66.0,99.0,99.0,3.0,0.17,-0.05,10.31,-0.03,0.01,0.0,19.16,80.39,-23.2,4852.92,1755695692.255184,14:14:52
478845.0,66.0,99.0,99.0,3.0,0.17,-0.03,10.33,-0.03,0.01,0.0,19.15,80.39,-23.2,4853.15,1755695692.3044364,14:14:52
478866.0,66.0,99.0,99.0,3.0,0.18,-0.05,10.3,-0.03,0.01,0.01,19.14,80.39,-23.2,4853.37,1755695692.3567202,14:14:52
478888.0,66.0,99.0,99.0,3.0,0.17,-0.03,10.31,-0.02,0.01,0.01,19.15,80.4,-23.2,4853.59,1755695692.4077652,14:14:52
478909.0,66.0,99.0,99.0,3.0,0.17,-0.06,10.3,-0.03,0.01,0.01,19.15,80.4,-23.21,4853.81,1755695692.4593108,14:14:52
478930.0,66.0,99.0,99.0,3.0,0.17,-0.05,10.33,-0.02,0.01,0.0,19.15,80.41,-23.21,4854.03,1755695692.5090408,14:14:52
478952.0,66.0,99.0,99.0,3.0,0.16,-0.05,10.31,-0.03,0.01,0.0,19.14,80.41,-23.21,4854.25,1755695692.5606565,14:14:52
478973.0,66.0,99.0,99.0,3.0,0.17,-0.04,10.32,-0.03,0.01,0.0,19.14,80.41,-23.21,4854.47,1755695692.6109943,14:14:52
478995.0,66.0,99.0,99.0,3.0,0.15,-0.02,10.3,-0.02,0.01,0.0,19.16,80.42,-23.21,4854.7,1755695692.6640399,14:14:52
479016.0,66.0,99.0,99.0,3.0,0.15,-0.03,10.32,-0.02,0.01,0.0,19.14,80.42,-23.21,4854.91,1755695692.7725768,14:14:52
479037.0,66.0,99.0,99.0,3.0,0.16,-0.03,10.31,-0.03,0.01,0.0,19.15,80.42,-23.21,4855.13,1755695692.8252485,14:14:52
479059.0,66.0,99.0,99.0,3.0,0.18,-0.03,10.3,-0.02,0.01,0.01,19.16,80.43,-23.21,4855.36,1755695692.8773043,14:14:52
479080.0,66.0,99.0,99.0,3.0,0.16,-0.05,10.32,-0.02,0.01,0.01,19.15,80.43,-23.21,4855.57,1755695692.9274657,14:14:52
479102.0,66.0,99.0,99.0,3.0,0.17,-0.06,10.32,-0.03,0.01,0.01,19.16,80.43,-23.21,4855.8,1755695692.9798462,14:14:52
479123.0,66.0,99.0,99.0,3.0,0.16,-0.05,10.3,-0.02,0.01,0.0,19.14,80.44,-23.21,4856.02,1755695693.0334857,14:14:53
479145.0,66.0,99.0,99.0,3.0,0.16,-0.05,10.31,-0.02,0.01,0.0,19.15,80.44,-23.22,4856.24,1755695693.0895977,14:14:53
479166.0,66.0,99.0,99.0,3.0,0.16,-0.06,10.34,-0.02,0.01,0.0,19.15,80.44,-23.22,4856.46,1755695693.1412718,14:14:53
479187.0,66.0,99.0,99.0,3.0,0.16,-0.07,10.32,-0.03,0.01,0.01,19.16,80.45,-23.22,4856.68,1755695693.193111,14:14:53
479209.0,66.0,99.0,99.0,3.0,0.18,-0.05,10.32,-0.02,0.01,0.01,19.15,80.45,-23.22,4856.9,1755695693.2448618,14:14:53
479230.0,66.0,99.0,99.0,3.0,0.16,-0.05,10.33,-0.02,0.01,0.01,19.15,80.45,-23.22,4857.12,1755695693.294911,14:14:53
479251.0,66.0,99.0,99.0,3.0,0.16,-0.05,10.33,-0.02,0.01,0.0,19.15,80.46,-23.22,4857.34,1755695693.344922,14:14:53
479273.0,66.0,99.0,99.0,3.0,0.17,-0.02,10.32,-0.02,0.01,0.0,19.14,80.46,-23.22,4857.56,1755695693.3945873,14:14:53
479294.0,66.0,99.0,99.0,3.0,0.18,-0.04,10.3,-0.03,0.01,0.01,19.14,80.46,-23.22,4857.78,1755695693.4456024,14:14:53
479316.0,66.0,99.0,99.0,3.0,0.17,-0.07,10.3,-0.02,0.01,0.01,19.15,80.47,-23.22,4858.01,1755695693.5007193,14:14:53
479337.0,66.0,99.0,99.0,3.0,0.15,-0.05,10.32,-0.03,0.01,0.01,19.14,80.47,-23.23,4858.22,1755695693.552681,14:14:53
479359.0,66.0,99.0,99.0,3.0,0.17,-0.05,10.31,-0.03,0.01,0.0,19.16,80.48,-23.23,4858.45,1755695693.605474,14:14:53
479380.0,66.0,99.0,99.0,3.0,0.16,-0.04,10.31,-0.03,0.01,0.0,19.14,80.48,-23.23,4858.67,1755695693.653295,14:14:53
479402.0,66.0,99.0,99.0,3.0,0.16,-0.06,10.3,-0.02,0.01,0.0,19.15,80.48,-23.23,4858.89,1755695693.7125227,14:14:53
479423.0,66.0,99.0,99.0,3.0,0.17,-0.05,10.3,-0.02,0.01,0.0,19.16,80.49,-23.23,4859.11,1755695693.7618437,14:14:53
479444.0,66.0,99.0,99.0,3.0,0.18,-0.05,10.31,-0.02,0.01,0.01,19.16,80.49,-23.23,4859.33,1755695693.81334,14:14:53
479466.0,69.0,99.0,99.0,3.0,0.16,-0.03,10.31,-0.03,0.01,0.0,19.14,80.49,-23.23,4859.55,1755695693.8647392,14:14:53
479487.0,69.0,99.0,99.0,3.0,0.18,-0.04,10.33,-0.03,0.01,0.0,19.14,80.5,-23.23,4859.77,1755695693.914345,14:14:53
479509.0,69.0,99.0,99.0,3.0,0.17,-0.05,10.31,-0.03,0.01,0.0,19.16,80.5,-23.23,4860.0,1755695693.9725513,14:14:53
479530.0,69.0,99.0,99.0,3.0,0.18,-0.03,10.32,-0.02,0.01,0.0,19.14,80.5,-23.23,4860.21,1755695694.0212612,14:14:54
479551.0,69.0,99.0,99.0,3.0,0.17,-0.05,10.3,-0.02,0.01,0.01,19.15,80.51,-23.24,4860.43,1755695694.0689151,14:14:54
479573.0,69.0,99.0,99.0,3.0,0.18,-0.04,10.3,-0.02,0.01,0.01,19.14,80.51,-23.24,4860.66,1755695694.1255052,14:14:54
479595.0,69.0,99.0,99.0,3.0,0.19,-0.07,10.3,-0.03,0.01,0.01,19.16,80.52,-23.24,4860.88,1755695694.1745505,14:14:54
479617.0,69.0,99.0,99.0,3.0,0.16,-0.06,10.31,-0.02,0.01,0.0,19.13,80.52,-23.24,4861.11,1755695694.2308009,14:14:54
479638.0,69.0,99.0,99.0,3.0,0.17,-0.04,10.29,-0.03,0.01,0.01,19.16,80.52,-23.24,4861.33,1755695694.2816088,14:14:54
479659.0,69.0,99.0,99.0,3.0,0.18,-0.05,10.31,-0.03,0.01,0.01,19.15,80.53,-23.24,4861.54,1755695694.3370981,14:14:54
479681.0,69.0,99.0,99.0,3.0,0.17,-0.04,10.31,-0.03,0.01,0.0,19.16,80.53,-23.24,4861.77,1755695694.3891616,14:14:54
479702.0,69.0,99.0,99.0,3.0,0.18,-0.05,10.32,-0.03,0.01,0.0,19.15,80.53,-23.24,4861.99,1755695694.4421556,14:14:54
479725.0,69.0,99.0,99.0,3.0,0.19,-0.05,10.29,-0.03,0.01,0.0,19.16,80.54,-23.24,4862.22,1755695694.4938123,14:14:54
479746.0,69.0,99.0,99.0,3.0,0.17,-0.04,10.3,-0.03,0.01,0.0,19.16,80.54,-23.25,4862.44,1755695694.5491855,14:14:54
479768.0,69.0,99.0,99.0,3.0,0.15,-0.05,10.28,-0.03,0.01,0.0,19.16,80.55,-23.25,4862.67,1755695694.6115258,14:14:54
479789.0,69.0,99.0,99.0,3.0,0.16,-0.05,10.3,-0.03,0.01,0.01,19.14,80.55,-23.25,4862.88,1755695694.6623325,14:14:54
479810.0,69.0,99.0,99.0,3.0,0.17,-0.06,10.31,-0.03,0.01,0.0,19.14,80.55,-23.25,4863.1,1755695694.712885,14:14:54
479832.0,69.0,99.0,99.0,3.0,0.15,-0.04,10.29,-0.03,0.01,0.0,19.15,80.56,-23.25,4863.33,1755695694.7672286,14:14:54
479853.0,69.0,99.0,99.0,3.0,0.17,-0.04,10.27,-0.02,0.01,0.01,19.15,80.56,-23.25,4863.54,1755695694.8175406,14:14:54
479876.0,69.0,99.0,99.0,3.0,0.17,-0.06,10.29,-0.03,0.01,0.0,19.16,80.56,-23.25,4863.78,1755695694.8667777,14:14:54
479897.0,69.0,99.0,99.0,3.0,0.18,-0.06,10.32,-0.02,0.01,0.01,19.15,80.57,-23.25,4864.0,1755695694.92082,14:14:54
479919.0,69.0,99.0,99.0,3.0,0.19,-0.07,10.35,-0.03,0.01,0.01,19.14,80.57,-23.25,4864.22,1755695694.9698694,14:14:54
479940.0,69.0,99.0,99.0,3.0,0.17,-0.06,10.32,-0.02,0.01,0.01,19.16,80.58,-23.26,4864.44,1755695695.027631,14:14:55
479961.0,69.0,99.0,99.0,3.0,0.17,-0.04,10.32,-0.03,0.01,0.01,19.16,80.58,-23.26,4864.66,1755695695.0843775,14:14:55
479983.0,69.0,99.0,99.0,3.0,0.18,-0.05,10.33,-0.03,0.01,0.01,19.16,80.58,-23.26,4864.88,1755695695.1470637,14:14:55
480005.0,69.0,99.0,99.0,3.0,0.16,-0.06,10.28,-0.03,0.01,0.01,19.16,80.59,-23.26,4865.11,1755695695.2124336,14:14:55
480027.0,69.0,99.0,99.0,3.0,0.17,-0.05,10.31,-0.03,0.01,0.0,19.16,80.59,-23.26,4865.34,1755695695.2725122,14:14:55
480048.0,69.0,99.0,99.0,3.0,0.15,-0.05,10.34,-0.02,0.01,0.01,19.16,80.59,-23.26,4865.55,1755695695.338065,14:14:55
480069.0,69.0,99.0,99.0,3.0,0.19,-0.04,10.29,-0.03,0.01,0.01,19.14,80.6,-23.26,4865.77,1755695695.3949757,14:14:55
480091.0,69.0,99.0,99.0,3.0,0.19,-0.04,10.31,-0.03,0.01,0.01,19.16,80.6,-23.26,4866.0,1755695695.451326,14:14:55
480112.0,69.0,99.0,99.0,3.0,0.17,-0.06,10.3,-0.03,0.01,0.01,19.17,80.6,-23.26,4866.21,1755695695.500684,14:14:55
480135.0,69.0,99.0,99.0,3.0,0.16,-0.05,10.29,-0.02,0.01,0.01,19.16,80.61,-23.26,4866.45,1755695695.5607467,14:14:55
480156.0,69.0,99.0,99.0,3.0,0.17,-0.02,10.33,-0.03,0.01,0.0,19.15,80.61,-23.27,4866.67,1755695695.6128464,14:14:55
480177.0,69.0,99.0,99.0,3.0,0.18,-0.05,10.32,-0.03,0.01,0.0,19.14,80.62,-23.27,4866.88,1755695695.6669538,14:14:55
480199.0,69.0,99.0,99.0,3.0,0.16,-0.05,10.33,-0.03,0.01,0.0,19.14,80.62,-23.27,4867.11,1755695695.7203152,14:14:55
480220.0,69.0,99.0,99.0,3.0,0.17,-0.06,10.32,-0.03,0.01,0.01,19.17,80.62,-23.27,4867.33,1755695695.7850752,14:14:55
480242.0,69.0,99.0,99.0,3.0,0.19,-0.05,10.33,-0.03,0.01,0.01,19.15,80.63,-23.27,4867.55,1755695695.841936,14:14:55
480263.0,69.0,99.0,99.0,3.0,0.17,-0.05,10.31,-0.03,0.01,0.0,19.14,80.63,-23.27,4867.77,1755695695.9041998,14:14:55
480285.0,69.0,99.0,99.0,3.0,0.19,-0.04,10.3,-0.03,0.01,0.01,19.15,80.63,-23.27,4868.0,1755695695.9579482,14:14:55
480306.0,69.0,99.0,99.0,3.0,0.17,-0.06,10.32,-0.03,0.01,0.01,19.15,80.64,-23.27,4868.21,1755695696.0145087,14:14:56
480327.0,69.0,99.0,99.0,3.0,0.15,-0.04,10.32,-0.03,0.01,0.01,19.16,80.64,-23.27,4868.43,1755695696.0777335,14:14:56
480349.0,69.0,99.0,99.0,3.0,0.14,-0.03,10.31,-0.03,0.01,0.01,19.14,80.65,-23.27,4868.66,1755695696.1312978,14:14:56
480370.0,69.0,99.0,99.0,3.0,0.16,-0.06,10.35,-0.03,0.01,0.0,19.14,80.65,-23.28,4868.87,1755695696.1824868,14:14:56
480393.0,69.0,99.0,99.0,3.0,0.17,-0.03,10.33,-0.02,0.01,0.01,19.15,80.65,-23.28,4869.11,1755695696.2347898,14:14:56
480415.0,69.0,99.0,99.0,3.0,0.17,-0.05,10.33,-0.03,0.01,0.0,19.14,80.66,-23.28,4869.34,1755695696.2880545,14:14:56
480437.0,69.0,99.0,99.0,3.0,0.17,-0.07,10.33,-0.03,0.01,0.0,19.14,80.66,-23.28,4869.57,1755695696.339304,14:14:56
480458.0,69.0,99.0,99.0,3.0,0.16,-0.06,10.31,-0.02,0.01,0.01,19.14,80.66,-23.28,4869.78,1755695696.388427,14:14:56
480480.0,69.0,99.0,99.0,3.0,0.18,-0.06,10.31,-0.02,0.01,0.0,19.14,80.67,-23.28,4870.01,1755695696.4413025,14:14:56
480501.0,69.0,99.0,99.0,3.0,0.16,-0.03,10.32,-0.03,0.01,0.01,19.14,80.67,-23.28,4870.23,1755695696.4890113,14:14:56
480523.0,69.0,99.0,99.0,3.0,0.15,-0.03,10.34,-0.03,0.01,0.01,19.16,80.67,-23.28,4870.45,1755695696.5478597,14:14:56
480545.0,69.0,99.0,99.0,3.0,0.16,-0.06,10.31,-0.03,0.01,0.0,19.14,80.68,-23.28,4870.68,1755695696.5994565,14:14:56
480566.0,69.0,99.0,99.0,3.0,0.16,-0.07,10.33,-0.03,0.01,0.01,19.14,80.68,-23.29,4870.9,1755695696.658576,14:14:56
480587.0,69.0,99.0,99.0,3.0,0.19,-0.05,10.32,-0.03,0.01,0.0,19.15,80.68,-23.29,4871.11,1755695696.7116513,14:14:56
480609.0,69.0,99.0,99.0,3.0,0.17,-0.03,10.34,-0.03,0.01,0.01,19.14,80.69,-23.29,4871.34,1755695696.7612302,14:14:56
480630.0,69.0,99.0,99.0,3.0,0.18,-0.06,10.32,-0.03,0.01,0.0,19.14,80.69,-23.29,4871.56,1755695696.8137307,14:14:56
480652.0,69.0,99.0,99.0,3.0,0.19,-0.05,10.3,-0.03,0.01,0.01,19.16,80.7,-23.29,4871.79,1755695696.8669822,14:14:56
480673.0,69.0,99.0,99.0,3.0,0.17,-0.04,10.33,-0.03,0.01,0.0,19.14,80.7,-23.29,4872.0,1755695696.9163349,14:14:56
480695.0,69.0,99.0,99.0,3.0,0.17,-0.06,10.34,-0.03,0.01,0.01,19.14,80.7,-23.29,4872.23,1755695696.965312,14:14:56
480716.0,69.0,99.0,99.0,3.0,0.18,-0.05,10.32,-0.03,0.01,0.0,19.15,80.71,-23.29,4872.45,1755695697.017379,14:14:57
480737.0,69.0,99.0,99.0,3.0,0.18,-0.06,10.28,-0.03,0.01,0.01,19.15,80.71,-23.29,4872.66,1755695697.0671928,14:14:57
480759.0,69.0,99.0,99.0,3.0,0.17,-0.04,10.31,-0.03,0.01,0.01,19.15,80.72,-23.3,4872.89,1755695697.1250956,14:14:57
480780.0,69.0,99.0,99.0,3.0,0.17,-0.03,10.3,-0.03,0.01,0.0,19.15,80.72,-23.3,4873.11,1755695697.1762502,14:14:57
480802.0,69.0,99.0,99.0,3.0,0.18,-0.04,10.33,-0.03,0.01,0.0,19.15,80.72,-23.3,4873.33,1755695697.2319472,14:14:57
480824.0,69.0,99.0,99.0,3.0,0.18,-0.05,10.3,-0.03,0.01,0.01,19.14,80.73,-23.3,4873.56,1755695697.289808,14:14:57
480845.0,69.0,99.0,99.0,3.0,0.18,-0.05,10.26,-0.03,0.01,0.0,19.16,80.73,-23.3,4873.78,1755695697.344752,14:14:57
480867.0,69.0,99.0,99.0,3.0,0.17,-0.05,10.32,-0.03,0.01,0.01,19.14,80.73,-23.3,4874.0,1755695697.4002125,14:14:57
480888.0,69.0,98.0,99.0,3.0,0.16,-0.05,10.3,-0.03,0.01,0.0,19.15,80.74,-23.3,4874.22,1755695697.5059211,14:14:57
480910.0,69.0,98.0,99.0,3.0,0.16,-0.03,10.31,-0.03,0.01,0.0,19.14,80.74,-23.3,4874.44,1755695697.5894392,14:14:57
480931.0,69.0,98.0,99.0,3.0,0.18,-0.06,10.31,-0.02,0.01,0.0,19.16,80.74,-23.3,4874.66,1755695697.6375926,14:14:57
480952.0,69.0,98.0,99.0,3.0,0.18,-0.04,10.3,-0.03,0.01,0.01,19.15,80.75,-23.3,4874.88,1755695697.688886,14:14:57
480974.0,69.0,98.0,99.0,3.0,0.17,-0.05,10.31,-0.03,0.01,0.01,19.15,80.75,-23.31,4875.1,1755695697.7393508,14:14:57
480995.0,69.0,98.0,99.0,3.0,0.17,-0.05,10.32,-0.03,0.01,0.0,19.16,80.76,-23.31,4875.32,1755695697.79849,14:14:57
481017.0,69.0,98.0,99.0,3.0,0.18,-0.04,10.33,-0.03,0.01,0.01,19.17,80.76,-23.31,4875.55,1755695697.8490481,14:14:57
481038.0,69.0,98.0,99.0,3.0,0.15,-0.04,10.29,-0.02,0.01,0.0,19.15,80.76,-23.31,4875.76,1755695697.9096339,14:14:57
481060.0,69.0,98.0,99.0,3.0,0.17,-0.04,10.32,-0.03,0.01,0.0,19.14,80.77,-23.31,4875.99,1755695697.961173,14:14:57
481081.0,69.0,98.0,99.0,3.0,0.18,-0.05,10.28,-0.02,0.01,0.0,19.15,80.77,-23.31,4876.21,1755695698.0130746,14:14:58
481102.0,69.0,98.0,99.0,3.0,0.16,-0.05,10.3,-0.02,0.01,0.01,19.15,80.77,-23.31,4876.42,1755695698.0633085,14:14:58
481124.0,69.0,98.0,99.0,3.0,0.16,-0.05,10.31,-0.02,0.01,0.0,19.15,80.78,-23.31,4876.65,1755695698.114241,14:14:58
481145.0,69.0,98.0,99.0,3.0,0.18,-0.05,10.34,-0.02,0.01,0.0,19.15,80.78,-23.31,4876.87,1755695698.1622465,14:14:58
481167.0,69.0,98.0,99.0,3.0,0.16,-0.05,10.3,-0.03,0.01,0.01,19.15,80.78,-23.31,4877.09,1755695698.2127433,14:14:58
481188.0,69.0,98.0,99.0,3.0,0.18,-0.04,10.31,-0.02,0.01,0.01,19.14,80.79,-23.32,4877.31,1755695698.2627246,14:14:58
481209.0,69.0,98.0,99.0,3.0,0.19,-0.05,10.3,-0.03,0.01,0.0,19.13,80.79,-23.32,4877.53,1755695698.3133519,14:14:58
481231.0,69.0,98.0,99.0,3.0,0.18,-0.06,10.3,-0.03,0.01,0.01,19.14,80.8,-23.32,4877.75,1755695698.3678985,14:14:58
481252.0,69.0,98.0,99.0,3.0,0.19,-0.07,10.3,-0.03,0.01,0.01,19.14,80.8,-23.32,4877.97,1755695698.4188533,14:14:58
481274.0,69.0,98.0,99.0,3.0,0.16,-0.05,10.3,-0.03,0.01,0.01,19.12,80.8,-23.32,4878.2,1755695698.4683356,14:14:58
481295.0,69.0,98.0,99.0,3.0,0.17,-0.05,10.3,-0.02,0.01,0.01,19.13,80.81,-23.32,4878.41,1755695698.5171287,14:14:58
481316.0,69.0,98.0,99.0,3.0,0.17,-0.07,10.31,-0.02,0.01,0.0,19.13,80.81,-23.32,4878.63,1755695698.5667605,14:14:58
481338.0,69.0,98.0,99.0,3.0,0.16,-0.05,10.33,-0.03,0.01,0.01,19.14,80.81,-23.32,4878.86,1755695698.6202667,14:14:58
481359.0,69.0,98.0,99.0,3.0,0.17,-0.04,10.31,-0.03,0.01,0.0,19.14,80.82,-23.32,4879.07,1755695698.669753,14:14:58
481381.0,69.0,98.0,99.0,3.0,0.18,-0.05,10.3,-0.02,0.01,0.0,19.13,80.82,-23.33,4879.3,1755695698.719601,14:14:58
481402.0,69.0,98.0,99.0,3.0,0.18,-0.06,10.3,-0.02,0.01,0.0,19.14,80.83,-23.33,4879.52,1755695698.7721145,14:14:58
481424.0,69.0,98.0,99.0,3.0,0.16,-0.07,10.32,-0.03,0.01,0.01,19.14,80.83,-23.33,4879.74,1755695698.823328,14:14:58
481445.0,69.0,98.0,99.0,3.0,0.16,-0.05,10.33,-0.02,0.01,0.0,19.14,80.83,-23.33,4879.96,1755695698.8813038,14:14:58
481466.0,69.0,98.0,99.0,3.0,0.17,-0.04,10.31,-0.03,0.01,0.01,19.14,80.84,-23.33,4880.18,1755695698.9321191,14:14:58
481488.0,69.0,98.0,99.0,3.0,0.17,-0.05,10.3,-0.02,0.01,0.01,19.12,80.84,-23.33,4880.4,1755695698.983678,14:14:58
481509.0,69.0,98.0,99.0,3.0,0.17,-0.05,10.31,-0.03,0.01,0.0,19.13,80.84,-23.33,4880.62,1755695699.0333657,14:14:59
481531.0,69.0,98.0,99.0,3.0,0.18,-0.05,10.34,-0.03,0.01,0.01,19.14,80.85,-23.33,4880.85,1755695699.0813663,14:14:59
481552.0,69.0,98.0,99.0,3.0,0.15,-0.07,10.29,-0.02,0.01,0.0,19.13,80.85,-23.34,4881.06,1755695699.2250526,14:14:59
481573.0,69.0,98.0,99.0,3.0,0.16,-0.05,10.32,-0.02,0.01,0.0,19.12,80.85,-23.34,4881.28,1755695699.2736237,14:14:59
481595.0,69.0,98.0,99.0,3.0,0.17,-0.06,10.31,-0.03,0.01,0.01,19.13,80.86,-23.34,4881.51,1755695699.32309,14:14:59
481616.0,69.0,98.0,99.0,3.0,0.17,-0.07,10.31,-0.02,0.01,0.01,19.12,80.86,-23.34,4881.72,1755695699.3743355,14:14:59
481638.0,69.0,98.0,99.0,3.0,0.18,-0.07,10.32,-0.03,0.01,0.0,19.13,80.87,-23.34,4881.95,1755695699.4231822,14:14:59
481659.0,69.0,98.0,99.0,3.0,0.18,-0.07,10.32,-0.03,0.01,0.0,19.16,80.87,-23.34,4882.17,1755695699.4812825,14:14:59
481681.0,69.0,98.0,99.0,3.0,0.17,-0.06,10.29,-0.03,0.01,0.01,19.14,80.87,-23.34,4882.39,1755695699.5533197,14:14:59
481702.0,69.0,98.0,99.0,3.0,0.15,-0.07,10.3,-0.02,0.01,0.01,19.14,80.88,-23.34,4882.61,1755695699.6323476,14:14:59
481723.0,69.0,98.0,99.0,3.0,0.17,-0.05,10.33,-0.03,0.01,0.0,19.12,80.88,-23.35,4882.83,1755695699.6963854,14:14:59
481745.0,69.0,98.0,99.0,3.0,0.17,-0.06,10.32,-0.02,0.01,0.0,19.13,80.88,-23.35,4883.05,1755695699.7606401,14:14:59
481766.0,69.0,98.0,99.0,3.0,0.17,-0.04,10.31,-0.03,0.01,0.01,19.14,80.89,-23.35,4883.27,1755695699.828554,14:14:59
481788.0,69.0,98.0,99.0,3.0,0.16,-0.04,10.31,-0.03,0.01,0.01,19.12,80.89,-23.35,4883.5,1755695699.8949893,14:14:59
481809.0,69.0,98.0,99.0,3.0,0.16,-0.03,10.32,-0.02,0.01,0.0,19.14,80.89,-23.35,4883.71,1755695699.951702,14:14:59
481831.0,69.0,98.0,99.0,3.0,0.16,-0.06,10.33,-0.03,0.01,0.0,19.13,80.9,-23.35,4883.94,1755695700.014697,14:15:00
481852.0,69.0,98.0,99.0,3.0,0.17,-0.03,10.32,-0.03,0.01,0.01,19.14,80.9,-23.35,4884.16,1755695700.1445343,14:15:00
481873.0,69.0,98.0,99.0,3.0,0.17,-0.04,10.32,-0.03,0.01,0.0,19.13,80.9,-23.35,4884.38,1755695700.1938636,14:15:00
481895.0,69.0,98.0,99.0,3.0,0.16,-0.07,10.31,-0.02,0.01,0.0,19.12,80.91,-23.35,4884.6,1755695700.2494483,14:15:00
481916.0,69.0,98.0,99.0,3.0,0.14,-0.07,10.34,-0.03,0.01,0.0,19.12,80.91,-23.36,4884.82,1755695700.2997236,14:15:00
481938.0,69.0,98.0,99.0,3.0,0.18,-0.06,10.33,-0.03,0.01,0.0,19.13,80.92,-23.36,4885.05,1755695700.3499205,14:15:00
481959.0,69.0,98.0,99.0,3.0,0.14,-0.04,10.3,-0.03,0.01,0.0,19.12,80.92,-23.36,4885.26,1755695700.4018948,14:15:00
481980.0,69.0,98.0,99.0,3.0,0.17,-0.04,10.32,-0.03,0.01,0.0,19.13,80.92,-23.36,4885.48,1755695700.4537196,14:15:00
482002.0,69.0,98.0,99.0,3.0,0.18,-0.05,10.34,-0.03,0.01,0.01,19.13,80.93,-23.36,4885.71,1755695700.5114386,14:15:00
482023.0,69.0,98.0,99.0,3.0,0.18,-0.05,10.31,-0.03,0.01,0.0,19.14,80.93,-23.36,4885.92,1755695700.5652814,14:15:00
482045.0,69.0,98.0,99.0,3.0,0.17,-0.06,10.3,-0.03,0.01,0.0,19.13,80.93,-23.36,4886.15,1755695700.6161532,14:15:00
482066.0,69.0,98.0,99.0,3.0,0.17,-0.05,10.32,-0.03,0.01,0.01,19.12,80.94,-23.36,4886.37,1755695700.6638594,14:15:00
482089.0,69.0,98.0,99.0,3.0,0.15,-0.03,10.28,-0.03,0.01,0.0,19.13,80.94,-23.36,4886.6,1755695700.7242181,14:15:00
482110.0,69.0,98.0,99.0,3.0,0.17,-0.04,10.32,-0.03,0.01,0.0,19.13,80.94,-23.36,4886.82,1755695700.7727222,14:15:00
482131.0,69.0,98.0,99.0,3.0,0.15,-0.04,10.31,-0.03,0.01,0.0,19.12,80.95,-23.37,4887.04,1755695700.8265476,14:15:00
482152.0,69.0,98.0,99.0,3.0,0.19,-0.04,10.34,-0.02,0.01,0.01,19.12,80.95,-23.37,4887.25,1755695700.87557,14:15:00
482174.0,69.0,98.0,99.0,3.0,0.18,-0.04,10.3,-0.03,0.01,0.0,19.12,80.95,-23.37,4887.48,1755695700.9278305,14:15:00
482195.0,69.0,98.0,99.0,3.0,0.18,-0.03,10.33,-0.02,0.01,0.0,19.12,80.96,-23.37,4887.7,1755695700.9785457,14:15:00
482218.0,69.0,98.0,99.0,3.0,0.17,-0.06,10.32,-0.03,0.01,0.0,19.12,80.96,-23.37,4887.93,1755695701.0290492,14:15:01
482239.0,69.0,98.0,99.0,3.0,0.17,-0.06,10.3,-0.03,0.01,0.0,19.13,80.97,-23.37,4888.15,1755695701.084595,14:15:01
482261.0,69.0,98.0,99.0,3.0,0.18,-0.04,10.32,-0.02,0.01,0.01,19.13,80.97,-23.37,4888.38,1755695701.134581,14:15:01
482282.0,70.0,98.0,99.0,3.0,0.16,-0.05,10.31,-0.03,0.01,0.01,19.14,80.97,-23.37,4888.59,1755695701.1908846,14:15:01
482303.0,70.0,98.0,99.0,3.0,0.17,-0.06,10.3,-0.03,0.01,0.0,19.14,80.98,-23.37,4888.81,1755695701.2396717,14:15:01
482325.0,70.0,98.0,99.0,3.0,0.16,-0.06,10.33,-0.03,0.01,0.01,19.14,80.98,-23.38,4889.04,1755695701.289191,14:15:01
482346.0,70.0,98.0,99.0,3.0,0.18,-0.07,10.34,-0.03,0.01,0.01,19.14,80.98,-23.38,4889.26,1755695701.3482852,14:15:01
482369.0,70.0,98.0,99.0,3.0,0.17,-0.07,10.33,-0.02,0.01,0.0,19.14,80.99,-23.38,4889.49,1755695701.4027967,14:15:01
482390.0,70.0,98.0,99.0,3.0,0.17,-0.06,10.31,-0.03,0.01,0.0,19.13,80.99,-23.38,4889.71,1755695701.4553246,14:15:01
482413.0,70.0,98.0,99.0,3.0,0.18,-0.06,10.32,-0.02,0.01,0.01,19.14,81.0,-23.38,4889.95,1755695701.5034814,14:15:01
482434.0,70.0,98.0,99.0,3.0,0.16,-0.06,10.29,-0.03,0.01,0.0,19.13,81.0,-23.38,4890.16,1755695701.5618188,14:15:01
482455.0,70.0,98.0,99.0,3.0,0.17,-0.05,10.32,-0.02,0.01,0.0,19.13,81.0,-23.38,4890.38,1755695701.6942737,14:15:01
482477.0,70.0,98.0,99.0,3.0,0.16,-0.06,10.31,-0.03,0.01,0.0,19.13,81.01,-23.38,4890.61,1755695701.903862,14:15:01
482498.0,70.0,98.0,99.0,3.0,0.2,-0.05,10.3,-0.03,0.01,0.0,19.13,81.01,-23.39,4890.82,1755695701.9568563,14:15:01
482521.0,70.0,98.0,99.0,3.0,0.18,-0.06,10.31,-0.03,0.01,0.01,19.11,81.01,-23.39,4891.06,1755695702.021697,14:15:02
482542.0,70.0,98.0,99.0,3.0,0.15,-0.06,10.32,-0.03,0.01,0.01,19.12,81.02,-23.39,4891.28,1755695702.0722518,14:15:02
482564.0,70.0,98.0,99.0,3.0,0.17,-0.04,10.29,-0.02,0.01,0.0,19.12,81.02,-23.39,4891.5,1755695702.1202197,14:15:02
482585.0,70.0,98.0,99.0,3.0,0.17,-0.04,10.31,-0.02,0.01,0.01,19.13,81.03,-23.39,4891.72,1755695702.1725774,14:15:02
482606.0,70.0,98.0,99.0,3.0,0.16,-0.03,10.33,-0.03,0.01,0.0,19.14,81.03,-23.39,4891.94,1755695702.2243607,14:15:02
482627.0,70.0,98.0,99.0,3.0,0.16,-0.04,10.29,-0.02,0.01,0.01,19.13,81.03,-23.39,4892.15,1755695702.2750816,14:15:02
482648.0,70.0,98.0,99.0,3.0,0.15,-0.05,10.3,-0.03,0.01,0.01,19.14,81.04,-23.39,4892.37,1755695702.3261666,14:15:02
482670.0,70.0,98.0,99.0,3.0,0.17,-0.06,10.33,-0.03,0.01,0.0,19.12,81.04,-23.39,4892.6,1755695702.3774426,14:15:02
482692.0,70.0,98.0,99.0,3.0,0.18,-0.06,10.31,-0.03,0.01,0.01,19.12,81.04,-23.39,4892.82,1755695702.4268122,14:15:02
482713.0,70.0,98.0,99.0,3.0,0.18,-0.05,10.31,-0.03,0.01,0.0,19.15,81.05,-23.4,4893.04,1755695702.4789066,14:15:02
482734.0,70.0,98.0,99.0,3.0,0.17,-0.06,10.29,-0.02,0.01,0.0,19.15,81.05,-23.4,4893.26,1755695702.529114,14:15:02
482756.0,70.0,98.0,99.0,3.0,0.18,-0.05,10.32,-0.02,0.01,0.0,19.14,81.05,-23.4,4893.48,1755695702.5811927,14:15:02
482777.0,70.0,98.0,99.0,3.0,0.19,-0.06,10.32,-0.03,0.01,0.0,19.12,81.06,-23.4,4893.7,1755695702.6308205,14:15:02
482799.0,70.0,98.0,99.0,3.0,0.17,-0.05,10.35,-0.03,0.01,0.0,19.13,81.06,-23.4,4893.93,1755695702.6863034,14:15:02
482820.0,70.0,98.0,99.0,3.0,0.15,-0.07,10.32,-0.03,0.01,0.0,19.13,81.06,-23.4,4894.14,1755695702.736524,14:15:02
482841.0,70.0,98.0,99.0,3.0,0.19,-0.06,10.36,-0.02,0.01,0.01,19.12,81.07,-23.4,4894.36,1755695702.7936466,14:15:02
482862.0,70.0,98.0,99.0,3.0,0.18,-0.05,10.31,-0.03,0.01,0.0,19.14,81.07,-23.4,4894.58,1755695702.844393,14:15:02
482883.0,70.0,98.0,99.0,3.0,0.17,-0.04,10.3,-0.03,0.01,0.0,19.14,81.08,-23.41,4894.79,1755695702.9015083,14:15:02
482904.0,70.0,98.0,99.0,3.0,0.17,-0.06,10.32,-0.02,0.01,0.0,19.12,81.08,-23.41,4895.01,1755695702.9511967,14:15:02
482925.0,70.0,98.0,99.0,3.0,0.17,-0.05,10.31,-0.03,0.01,0.01,19.14,81.08,-23.41,4895.23,1755695703.0059514,14:15:03
482946.0,70.0,98.0,99.0,3.0,0.16,-0.05,10.3,-0.02,0.01,0.01,19.12,81.09,-23.41,4895.44,1755695703.0569057,14:15:03
482968.0,70.0,98.0,99.0,3.0,0.18,-0.05,10.3,-0.02,0.01,0.0,19.14,81.09,-23.41,4895.67,1755695703.1144946,14:15:03
482990.0,70.0,98.0,99.0,3.0,0.18,-0.05,10.34,-0.02,0.01,0.01,19.13,81.09,-23.41,4895.9,1755695703.1663194,14:15:03
483011.0,70.0,98.0,99.0,3.0,0.16,-0.03,10.31,-0.03,0.01,0.0,19.11,81.1,-23.41,4896.11,1755695703.2164857,14:15:03
483033.0,70.0,98.0,99.0,3.0,0.16,-0.05,10.28,-0.03,0.01,0.01,19.14,81.1,-23.41,4896.34,1755695703.2841704,14:15:03
483054.0,70.0,98.0,99.0,3.0,0.18,-0.04,10.33,-0.02,0.01,0.0,19.14,81.1,-23.41,4896.56,1755695703.4540408,14:15:03
483076.0,70.0,98.0,99.0,3.0,0.19,-0.04,10.32,-0.03,0.01,0.0,19.13,81.11,-23.41,4896.78,1755695703.5066335,14:15:03
483098.0,70.0,98.0,99.0,3.0,0.17,-0.04,10.3,-0.02,0.01,0.0,19.12,81.11,-23.41,4897.01,1755695703.5603766,14:15:03
483119.0,70.0,98.0,99.0,3.0,0.18,-0.04,10.3,-0.02,0.01,0.0,19.12,81.12,-23.42,4897.23,1755695703.6092699,14:15:03
483141.0,70.0,98.0,99.0,3.0,0.17,-0.06,10.29,-0.03,0.01,0.0,19.11,81.12,-23.42,4897.45,1755695703.6571484,14:15:03
483162.0,70.0,98.0,99.0,3.0,0.16,-0.04,10.33,-0.02,0.01,0.0,19.1,81.12,-23.42,4897.67,1755695703.708134,14:15:03
483183.0,70.0,98.0,99.0,3.0,0.18,-0.04,10.33,-0.03,0.01,0.0,19.13,81.13,-23.42,4897.89,1755695703.7700894,14:15:03
483205.0,70.0,98.0,99.0,3.0,0.17,-0.06,10.3,-0.03,0.01,0.01,19.12,81.13,-23.42,4898.11,1755695703.93606,14:15:03
483226.0,70.0,98.0,99.0,3.0,0.18,-0.05,10.3,-0.02,0.01,0.01,19.12,81.13,-23.42,4898.33,1755695703.9872653,14:15:03
483248.0,70.0,98.0,99.0,3.0,0.17,-0.07,10.31,-0.03,0.01,0.01,19.09,81.14,-23.42,4898.56,1755695704.0381448,14:15:04
483269.0,70.0,98.0,99.0,3.0,0.16,-0.03,10.34,-0.03,0.01,0.0,19.12,81.14,-23.42,4898.77,1755695704.0879629,14:15:04
483290.0,70.0,98.0,99.0,3.0,0.17,-0.04,10.28,-0.03,0.01,0.01,19.12,81.15,-23.42,4898.99,1755695704.13893,14:15:04
483311.0,70.0,98.0,99.0,3.0,0.19,-0.05,10.33,-0.03,0.01,0.0,19.11,81.15,-23.43,4899.21,1755695704.1889944,14:15:04
483332.0,70.0,98.0,99.0,3.0,0.15,-0.04,10.31,-0.02,0.01,0.0,19.13,81.15,-23.43,4899.42,1755695704.2379646,14:15:04
483354.0,70.0,98.0,99.0,3.0,0.15,-0.05,10.31,-0.02,0.01,0.01,19.13,81.16,-23.43,4899.65,1755695704.28922,14:15:04
483375.0,70.0,98.0,99.0,3.0,0.18,-0.04,10.3,-0.03,0.01,0.0,19.14,81.16,-23.43,4899.87,1755695704.3396747,14:15:04
483396.0,70.0,98.0,99.0,3.0,0.17,-0.04,10.31,-0.03,0.01,0.01,19.12,81.16,-23.43,4900.08,1755695704.3903837,14:15:04
483418.0,70.0,98.0,99.0,3.0,0.14,-0.06,10.31,-0.03,0.01,0.01,19.11,81.17,-23.43,4900.31,1755695704.4424808,14:15:04
483439.0,70.0,98.0,99.0,3.0,0.18,-0.04,10.3,-0.02,0.01,0.01,19.12,81.17,-23.43,4900.53,1755695704.490715,14:15:04
483461.0,70.0,98.0,99.0,3.0,0.16,-0.04,10.31,-0.03,0.01,0.01,19.12,81.17,-23.43,4900.75,1755695704.543338,14:15:04
483482.0,70.0,98.0,99.0,3.0,0.16,-0.03,10.31,-0.03,0.01,0.01,19.09,81.18,-23.43,4900.97,1755695704.593464,14:15:04
483503.0,70.0,98.0,99.0,3.0,0.17,-0.05,10.3,-0.03,0.01,0.0,19.13,81.18,-23.43,4901.19,1755695704.6509876,14:15:04
483525.0,70.0,98.0,99.0,3.0,0.17,-0.06,10.3,-0.03,0.01,0.01,19.13,81.18,-23.43,4901.41,1755695704.7005758,14:15:04
483546.0,70.0,98.0,99.0,3.0,0.18,-0.03,10.32,-0.02,0.01,0.0,19.12,81.19,-23.44,4901.63,1755695704.7495325,14:15:04
483567.0,70.0,98.0,99.0,3.0,0.17,-0.06,10.32,-0.03,0.01,0.0,19.13,81.19,-23.44,4901.85,1755695704.8005846,14:15:04
483589.0,70.0,98.0,99.0,3.0,0.17,-0.06,10.32,-0.02,0.01,0.01,19.13,81.2,-23.44,4902.07,1755695704.8510413,14:15:04
483610.0,70.0,98.0,99.0,3.0,0.16,-0.05,10.33,-0.03,0.01,0.01,19.12,81.2,-23.44,4902.29,1755695704.908275,14:15:04
483632.0,70.0,98.0,99.0,3.0,0.18,-0.06,10.31,-0.03,0.01,0.0,19.13,81.2,-23.44,4902.52,1755695704.9586148,14:15:04
483653.0,70.0,98.0,99.0,3.0,0.18,-0.04,10.32,-0.02,0.01,0.0,19.13,81.21,-23.44,4902.73,1755695705.0127103,14:15:05
483674.0,70.0,98.0,99.0,3.0,0.16,-0.06,10.32,-0.03,0.01,0.0,19.14,81.21,-23.44,4902.95,1755695705.06376,14:15:05
483696.0,70.0,98.0,99.0,3.0,0.19,-0.05,10.28,-0.03,0.01,0.0,19.12,81.21,-23.44,4903.18,1755695705.125482,14:15:05
483717.0,70.0,98.0,99.0,3.0,0.17,-0.06,10.3,-0.02,0.01,0.01,19.12,81.22,-23.45,4903.39,1755695705.1742613,14:15:05
483740.0,70.0,98.0,99.0,3.0,0.18,-0.06,10.34,-0.02,0.01,0.01,19.12,81.22,-23.45,4903.63,1755695705.22412,14:15:05
483761.0,70.0,98.0,99.0,3.0,0.18,-0.05,10.32,-0.02,0.01,0.01,19.13,81.23,-23.45,4903.85,1755695705.2758775,14:15:05
483783.0,70.0,98.0,99.0,3.0,0.17,-0.05,10.34,-0.03,0.01,0.0,19.13,81.23,-23.45,4904.07,1755695705.329016,14:15:05
483804.0,70.0,98.0,99.0,3.0,0.16,-0.05,10.35,-0.03,0.01,0.01,19.13,81.23,-23.45,4904.29,1755695705.3814564,14:15:05
483825.0,70.0,98.0,99.0,3.0,0.16,-0.06,10.3,-0.02,0.01,0.0,19.14,81.24,-23.45,4904.51,1755695705.4714715,14:15:05
483846.0,70.0,98.0,99.0,3.0,0.17,-0.05,10.3,-0.03,0.01,0.0,19.14,81.24,-23.45,4904.73,1755695705.521931,14:15:05
483867.0,70.0,98.0,99.0,3.0,0.16,-0.04,10.31,-0.02,0.01,0.0,19.14,81.24,-23.45,4904.94,1755695705.5743556,14:15:05
483889.0,70.0,98.0,99.0,3.0,0.16,-0.05,10.31,-0.03,0.01,0.01,19.14,81.25,-23.45,4905.17,1755695705.624722,14:15:05
483911.0,70.0,98.0,99.0,3.0,0.18,-0.06,10.34,-0.02,0.01,0.0,19.13,81.25,-23.46,4905.4,1755695705.6891694,14:15:05
483932.0,70.0,98.0,99.0,3.0,0.18,-0.03,10.31,-0.03,0.01,0.01,19.14,81.25,-23.46,4905.61,1755695705.7479458,14:15:05
483953.0,70.0,98.0,99.0,3.0,0.17,-0.06,10.32,-0.02,0.01,0.0,19.14,81.26,-23.46,4905.83,1755695705.797033,14:15:05
484083.0,70.0,98.0,99.0,3.0,0.16,-0.06,10.3,-0.02,0.01,0.0,19.13,81.28,-23.47,4907.17,1755695706.1066053,14:15:06
484104.0,70.0,98.0,99.0,3.0,0.16,-0.05,10.33,-0.03,0.01,0.0,19.13,81.28,-23.47,4907.39,1755695706.1565564,14:15:06
485985.0,69.0,98.0,99.0,3.0,0.16,-0.05,10.32,-0.03,0.01,0.01,19.13,81.6,-23.56,4926.78,1755695710.038265,14:15:10
486006.0,69.0,98.0,99.0,3.0,0.17,-0.04,10.3,-0.03,0.01,0.0,19.12,81.6,-23.56,4927.0,1755695710.0903451,14:15:10
486027.0,69.0,98.0,99.0,3.0,0.19,-0.03,10.35,-0.03,0.01,0.0,19.12,81.61,-23.56,4927.21,1755695710.140433,14:15:10
486049.0,69.0,98.0,99.0,3.0,0.19,-0.05,10.33,-0.03,0.01,0.0,19.12,81.61,-23.56,4927.44,1755695710.192434,14:15:10
486071.0,69.0,98.0,99.0,3.0,0.15,-0.05,10.31,-0.02,0.01,0.0,19.11,81.61,-23.56,4927.67,1755695710.2791812,14:15:10
486092.0,69.0,98.0,99.0,3.0,0.17,-0.05,10.27,-0.03,0.01,0.0,19.14,81.62,-23.56,4927.88,1755695710.329906,14:15:10
486114.0,69.0,98.0,99.0,3.0,0.18,-0.06,10.28,-0.03,0.01,0.01,19.12,81.62,-23.57,4928.11,1755695710.3821423,14:15:10
486135.0,69.0,98.0,99.0,3.0,0.18,-0.05,10.29,-0.02,0.01,0.0,19.11,81.62,-23.57,4928.33,1755695710.4313123,14:15:10
486156.0,69.0,98.0,99.0,3.0,0.16,-0.04,10.31,-0.03,0.01,0.0,19.13,81.63,-23.57,4928.54,1755695710.4913666,14:15:10
486178.0,69.0,98.0,99.0,3.0,0.17,-0.05,10.3,-0.03,0.01,0.01,19.12,81.63,-23.57,4928.77,1755695710.5820189,14:15:10
486199.0,69.0,98.0,99.0,3.0,0.18,-0.07,10.3,-0.02,0.01,0.01,19.13,81.64,-23.57,4928.98,1755695710.6345587,14:15:10
486220.0,69.0,98.0,99.0,3.0,0.16,-0.04,10.31,-0.02,0.01,0.0,19.11,81.64,-23.57,4929.2,1755695710.6869564,14:15:10
486242.0,69.0,98.0,99.0,3.0,0.18,-0.05,10.32,-0.03,0.01,0.0,19.13,81.64,-23.57,4929.43,1755695710.7366157,14:15:10
486263.0,69.0,98.0,99.0,3.0,0.19,-0.05,10.31,-0.03,0.01,0.0,19.12,81.65,-23.57,4929.65,1755695710.7902927,14:15:10
486284.0,69.0,98.0,99.0,3.0,0.18,-0.04,10.31,-0.03,0.01,0.0,19.09,81.65,-23.57,4929.86,1755695710.8381288,14:15:10
486306.0,69.0,98.0,99.0,3.0,0.16,-0.06,10.32,-0.03,0.01,0.0,19.12,81.65,-23.57,4930.09,1755695710.8920414,14:15:10
486327.0,69.0,98.0,99.0,3.0,0.18,-0.05,10.3,-0.03,0.01,0.0,19.12,81.66,-23.58,4930.31,1755695710.9446583,14:15:10
486349.0,69.0,98.0,99.0,3.0,0.18,-0.06,10.31,-0.03,0.01,0.01,19.11,81.66,-23.58,4930.53,1755695710.995612,14:15:10
486370.0,69.0,98.0,99.0,3.0,0.18,-0.05,10.28,-0.03,0.01,0.01,19.11,81.67,-23.58,4930.75,1755695711.0451157,14:15:11
486392.0,69.0,98.0,99.0,3.0,0.17,-0.02,10.3,-0.03,0.01,0.01,19.11,81.67,-23.58,4930.97,1755695711.0964162,14:15:11
486413.0,69.0,98.0,99.0,3.0,0.17,-0.04,10.32,-0.03,0.01,0.0,19.11,81.67,-23.58,4931.19,1755695711.1448417,14:15:11
486434.0,69.0,98.0,99.0,3.0,0.17,-0.06,10.32,-0.02,0.01,0.01,19.12,81.68,-23.58,4931.41,1755695711.1976838,14:15:11
486456.0,69.0,98.0,99.0,3.0,0.16,-0.04,10.28,-0.02,0.01,0.0,19.11,81.68,-23.58,4931.63,1755695711.2499099,14:15:11
486477.0,69.0,98.0,99.0,3.0,0.17,-0.06,10.3,-0.02,0.01,0.0,19.12,81.68,-23.58,4931.85,1755695711.3056593,14:15:11
486499.0,69.0,98.0,99.0,3.0,0.16,-0.05,10.33,-0.02,0.01,0.01,19.11,81.69,-23.58,4932.08,1755695711.3549287,14:15:11
486520.0,69.0,98.0,99.0,3.0,0.15,-0.07,10.28,-0.03,0.01,0.0,19.12,81.69,-23.59,4932.29,1755695711.4042928,14:15:11
486541.0,69.0,98.0,99.0,3.0,0.18,-0.06,10.32,-0.03,0.01,0.0,19.11,81.69,-23.59,4932.51,1755695711.4556546,14:15:11
486563.0,69.0,98.0,99.0,3.0,0.17,-0.06,10.32,-0.03,0.01,0.0,19.11,81.7,-23.59,4932.74,1755695711.5119784,14:15:11
486584.0,69.0,98.0,99.0,3.0,0.17,-0.04,10.31,-0.03,0.01,0.01,19.1,81.7,-23.59,4932.95,1755695711.5594172,14:15:11
486607.0,69.0,98.0,99.0,3.0,0.17,-0.03,10.35,-0.03,0.01,0.01,19.12,81.71,-23.59,4933.19,1755695711.607507,14:15:11
486628.0,69.0,98.0,99.0,3.0,0.17,-0.06,10.3,-0.03,0.01,0.0,19.11,81.71,-23.59,4933.41,1755695711.6576104,14:15:11
486650.0,69.0,98.0,99.0,3.0,0.17,-0.03,10.32,-0.03,0.01,0.01,19.13,81.71,-23.59,4933.63,1755695711.7176335,14:15:11
486671.0,69.0,98.0,99.0,3.0,0.16,-0.05,10.31,-0.02,0.01,0.01,19.1,81.72,-23.59,4933.85,1755695711.768544,14:15:11
486692.0,69.0,98.0,99.0,3.0,0.16,-0.05,10.31,-0.03,0.01,0.0,19.11,81.72,-23.59,4934.07,1755695711.8227775,14:15:11
486821.0,69.0,98.0,99.0,3.0,0.18,-0.05,10.29,-0.02,0.01,0.0,19.12,81.74,-23.6,4935.4,1755695712.1447299,14:15:12
486842.0,69.0,98.0,99.0,3.0,0.16,-0.03,10.31,-0.03,0.01,0.0,19.12,81.75,-23.6,4935.61,1755695712.201785,14:15:12
486865.0,69.0,98.0,99.0,3.0,0.15,-0.05,10.29,-0.02,0.01,0.0,19.11,81.75,-23.6,4935.85,1755695712.2576087,14:15:12
489691.0,68.0,97.0,99.0,3.0,0.18,-0.05,10.32,-0.03,0.01,0.0,19.09,82.23,-23.74,4964.99,1755695719.579745,14:15:19
489713.0,68.0,97.0,99.0,3.0,0.16,-0.05,10.34,-0.03,0.01,0.0,19.09,82.23,-23.75,4965.22,1755695719.6323566,14:15:19
489734.0,68.0,97.0,99.0,3.0,0.18,-0.05,10.3,-0.03,0.01,0.0,19.09,82.24,-23.75,4965.44,1755695719.68373,14:15:19
489755.0,68.0,97.0,99.0,3.0,0.15,-0.06,10.29,-0.03,0.01,0.01,19.09,82.24,-23.75,4965.65,1755695719.7345734,14:15:19
489777.0,68.0,97.0,99.0,3.0,0.17,-0.05,10.29,-0.03,0.01,0.0,19.1,82.24,-23.75,4965.88,1755695719.7846377,14:15:19
489798.0,68.0,97.0,99.0,3.0,0.18,-0.07,10.33,-0.02,0.01,0.0,19.09,82.25,-23.75,4966.09,1755695719.833965,14:15:19
489820.0,68.0,97.0,99.0,3.0,0.18,-0.05,10.32,-0.03,0.01,0.01,19.1,82.25,-23.75,4966.32,1755695719.8877475,14:15:19
489841.0,68.0,97.0,99.0,3.0,0.16,-0.05,10.3,-0.03,0.01,0.0,19.1,82.25,-23.75,4966.54,1755695719.9405713,14:15:19
489863.0,68.0,97.0,99.0,3.0,0.17,-0.06,10.3,-0.03,0.01,0.0,19.11,82.26,-23.75,4966.76,1755695719.991463,14:15:19
489884.0,68.0,97.0,99.0,3.0,0.17,-0.05,10.3,-0.03,0.01,0.01,19.09,82.26,-23.75,4966.98,1755695720.0422163,14:15:20
489905.0,68.0,97.0,99.0,3.0,0.15,-0.04,10.32,-0.03,0.01,0.01,19.08,82.27,-23.76,4967.2,1755695720.2287354,14:15:20
489927.0,68.0,97.0,99.0,3.0,0.17,-0.05,10.3,-0.02,0.01,0.0,19.1,82.27,-23.76,4967.42,1755695720.4209805,14:15:20
489948.0,69.0,0.0,99.0,3.0,0.18,-0.04,10.31,-0.03,0.01,0.01,19.11,82.27,-23.76,4967.64,1755695720.472972,14:15:20
489970.0,69.0,0.0,99.0,3.0,0.16,-0.04,10.35,-0.03,0.01,0.0,19.1,82.28,-23.76,4967.87,1755695720.5221806,14:15:20
489991.0,69.0,0.0,99.0,3.0,0.19,-0.07,10.31,-0.03,0.01,0.0,19.1,82.28,-23.76,4968.08,1755695720.6287801,14:15:20
490013.0,69.0,0.0,99.0,3.0,0.17,-0.06,10.31,-0.02,0.01,0.01,19.09,82.28,-23.76,4968.31,1755695720.6872635,14:15:20
490034.0,69.0,0.0,99.0,3.0,0.18,-0.05,10.33,-0.03,0.01,0.01,19.09,82.29,-23.76,4968.53,1755695720.739284,14:15:20
490055.0,69.0,0.0,99.0,3.0,0.2,-0.05,10.31,-0.03,0.01,0.0,19.1,82.29,-23.76,4968.75,1755695720.7921913,14:15:20
490077.0,69.0,0.0,99.0,3.0,0.17,-0.05,10.3,-0.02,0.01,0.01,19.08,82.3,-23.76,4968.97,1755695720.8456888,14:15:20
490098.0,69.0,0.0,99.0,3.0,0.17,-0.03,10.3,-0.03,0.01,0.01,19.09,82.3,-23.77,4969.19,1755695720.9329937,14:15:20
490119.0,69.0,0.0,99.0,3.0,0.16,-0.04,10.32,-0.03,0.01,0.01,19.08,82.3,-23.77,4969.4,1755695720.9858418,14:15:20
490141.0,69.0,0.0,99.0,3.0,0.18,-0.06,10.3,-0.03,0.01,0.01,19.09,82.31,-23.77,4969.63,1755695721.035941,14:15:21
490162.0,69.0,0.0,99.0,3.0,0.18,-0.05,10.31,-0.02,0.01,0.01,19.09,82.31,-23.77,4969.85,1755695721.0984206,14:15:21
490183.0,69.0,0.0,99.0,3.0,0.17,-0.04,10.32,-0.03,0.01,0.0,19.1,82.31,-23.77,4970.06,1755695721.1462154,14:15:21
490205.0,69.0,0.0,99.0,3.0,0.15,-0.04,10.32,-0.03,0.01,0.0,19.08,82.32,-23.77,4970.29,1755695721.1983135,14:15:21
490226.0,69.0,0.0,99.0,3.0,0.16,-0.04,10.31,-0.02,0.01,0.0,19.09,82.32,-23.77,4970.51,1755695721.2488146,14:15:21
490248.0,69.0,0.0,99.0,3.0,0.17,-0.05,10.3,-0.02,0.01,0.0,19.1,82.32,-23.77,4970.74,1755695721.298778,14:15:21
490269.0,69.0,0.0,99.0,3.0,0.17,-0.06,10.29,-0.02,0.01,0.0,19.1,82.33,-23.77,4970.95,1755695721.352412,14:15:21
490290.0,69.0,0.0,99.0,3.0,0.18,-0.04,10.3,-0.03,0.01,0.01,19.09,82.33,-23.77,4971.17,1755695721.4013846,14:15:21
490312.0,69.0,0.0,99.0,3.0,0.18,-0.05,10.31,-0.03,0.01,0.01,19.09,82.33,-23.78,4971.4,1755695721.462502,14:15:21
490333.0,69.0,0.0,99.0,3.0,0.18,-0.04,10.33,-0.02,0.01,0.01,19.09,82.34,-23.78,4971.61,1755695721.5455391,14:15:21
490355.0,69.0,0.0,99.0,3.0,0.18,-0.05,10.34,-0.03,0.01,0.01,19.09,82.34,-23.78,4971.84,1755695721.5942216,14:15:21
490376.0,69.0,0.0,99.0,3.0,0.16,-0.04,10.3,-0.02,0.01,0.01,19.1,82.35,-23.78,4972.06,1755695721.6509426,14:15:21
490397.0,69.0,0.0,99.0,3.0,0.16,-0.05,10.31,-0.03,0.01,0.0,19.09,82.35,-23.78,4972.27,1755695721.7010412,14:15:21
490418.0,69.0,0.0,99.0,3.0,0.17,-0.04,10.33,-0.02,0.01,0.0,19.09,82.35,-23.78,4972.49,1755695721.7628589,14:15:21
490439.0,69.0,0.0,99.0,3.0,0.17,-0.05,10.3,-0.02,0.01,0.0,19.09,82.36,-23.78,4972.71,1755695721.812928,14:15:21
490461.0,69.0,0.0,99.0,3.0,0.16,-0.05,10.31,-0.02,0.01,0.01,19.07,82.36,-23.78,4972.93,1755695721.9558923,14:15:21
490482.0,69.0,0.0,99.0,3.0,0.18,-0.05,10.31,-0.03,0.01,0.0,19.08,82.36,-23.78,4973.15,1755695722.0078483,14:15:22
490503.0,69.0,0.0,99.0,3.0,0.19,-0.03,10.33,-0.03,0.01,0.0,19.1,82.37,-23.78,4973.37,1755695722.0576615,14:15:22
490525.0,69.0,0.0,99.0,3.0,0.16,-0.05,10.33,-0.03,0.01,0.0,19.09,82.37,-23.79,4973.59,1755695722.1128714,14:15:22
490546.0,69.0,0.0,99.0,3.0,0.17,-0.04,10.33,-0.03,0.01,0.0,19.09,82.38,-23.79,4973.81,1755695722.1706188,14:15:22
490568.0,69.0,0.0,99.0,3.0,0.17,-0.05,10.3,-0.02,0.01,0.0,19.09,82.38,-23.79,4974.04,1755695722.221278,14:15:22
490589.0,69.0,0.0,99.0,3.0,0.17,-0.07,10.3,-0.02,0.01,0.0,19.09,82.38,-23.79,4974.25,1755695722.2710855,14:15:22
490611.0,69.0,0.0,99.0,3.0,0.17,-0.05,10.31,-0.03,0.01,0.0,19.08,82.39,-23.79,4974.48,1755695722.3228347,14:15:22
490633.0,69.0,0.0,99.0,3.0,0.17,-0.06,10.32,-0.02,0.01,0.01,19.07,82.39,-23.79,4974.71,1755695722.3737502,14:15:22
490655.0,69.0,0.0,99.0,3.0,0.17,-0.05,10.3,-0.03,0.01,0.0,19.09,82.39,-23.79,4974.93,1755695722.4248593,14:15:22
490677.0,69.0,0.0,99.0,3.0,0.16,-0.05,10.3,-0.03,0.01,0.0,19.09,82.4,-23.79,4975.16,1755695722.5799105,14:15:22
490698.0,69.0,0.0,99.0,3.0,0.2,-0.04,10.28,-0.02,0.01,0.0,19.1,82.4,-23.79,4975.38,1755695722.6302986,14:15:22
490720.0,69.0,0.0,99.0,3.0,0.19,-0.06,10.32,-0.03,0.01,0.0,19.08,82.41,-23.8,4975.6,1755695722.6809514,14:15:22
490741.0,69.0,0.0,99.0,3.0,0.16,-0.04,10.29,-0.02,0.01,0.0,19.08,82.41,-23.8,4975.82,1755695722.7319312,14:15:22
490762.0,69.0,0.0,99.0,3.0,0.16,-0.03,10.3,-0.03,0.01,0.0,19.08,82.41,-23.8,4976.04,1755695722.7851892,14:15:22
490784.0,69.0,0.0,99.0,3.0,0.18,-0.04,10.3,-0.02,0.01,0.0,19.09,82.42,-23.8,4976.26,1755695722.8361766,14:15:22
490805.0,69.0,0.0,99.0,3.0,0.19,-0.07,10.31,-0.02,0.01,0.0,19.09,82.42,-23.8,4976.48,1755695722.8974154,14:15:22
490827.0,69.0,0.0,99.0,3.0,0.17,-0.03,10.33,-0.02,0.01,0.0,19.09,82.42,-23.8,4976.71,1755695722.9473128,14:15:22
490848.0,69.0,0.0,99.0,3.0,0.18,-0.06,10.33,-0.02,0.01,0.0,19.09,82.43,-23.8,4976.92,1755695722.995648,14:15:22
490869.0,69.0,0.0,99.0,3.0,0.17,-0.05,10.32,-0.03,0.01,0.01,19.09,82.43,-23.8,4977.14,1755695723.0568972,14:15:23
490891.0,69.0,0.0,99.0,3.0,0.17,-0.06,10.32,-0.02,0.01,0.01,19.08,82.44,-23.8,4977.37,1755695723.107,14:15:23
490912.0,69.0,0.0,99.0,3.0,0.17,-0.04,10.32,-0.03,0.01,0.0,19.09,82.44,-23.8,4977.58,1755695723.1807034,14:15:23
490934.0,69.0,0.0,99.0,3.0,0.17,-0.03,10.36,-0.03,0.01,0.0,19.09,82.44,-23.81,4977.81,1755695723.2402837,14:15:23
490956.0,69.0,0.0,99.0,3.0,0.18,-0.04,10.32,-0.03,0.01,0.0,19.08,82.45,-23.81,4978.04,1755695723.2922292,14:15:23
490978.0,69.0,0.0,99.0,3.0,0.15,-0.06,10.3,-0.03,0.01,0.0,19.08,82.45,-23.81,4978.26,1755695723.3452225,14:15:23
490999.0,69.0,0.0,99.0,3.0,0.18,-0.05,10.33,-0.02,0.01,0.0,19.1,82.45,-23.81,4978.48,1755695723.3943157,14:15:23
491020.0,69.0,0.0,99.0,3.0,0.17,-0.05,10.32,-0.03,0.01,0.0,19.09,82.46,-23.81,4978.7,1755695723.4445066,14:15:23
491042.0,69.0,0.0,99.0,3.0,0.17,-0.05,10.3,-0.02,0.01,0.0,19.08,82.46,-23.81,4978.92,1755695723.4959464,14:15:23
491064.0,69.0,0.0,99.0,3.0,0.17,-0.04,10.32,-0.03,0.01,0.01,19.1,82.46,-23.81,4979.15,1755695723.5449026,14:15:23
491086.0,69.0,0.0,99.0,3.0,0.17,-0.05,10.28,-0.03,0.01,0.0,19.09,82.47,-23.81,4979.38,1755695723.5945334,14:15:23
491107.0,69.0,0.0,99.0,3.0,0.17,-0.04,10.33,-0.03,0.01,0.0,19.07,82.47,-23.81,4979.59,1755695723.6503735,14:15:23
491128.0,69.0,0.0,99.0,3.0,0.17,-0.04,10.31,-0.02,0.01,0.0,19.09,82.48,-23.81,4979.81,1755695723.7003074,14:15:23
491150.0,69.0,0.0,99.0,3.0,0.18,-0.05,10.3,-0.03,0.01,0.0,19.09,82.48,-23.82,4980.04,1755695723.7499967,14:15:23
491171.0,69.0,0.0,99.0,3.0,0.17,-0.03,10.3,-0.03,0.01,0.0,19.08,82.48,-23.82,4980.25,1755695723.800872,14:15:23
491193.0,70.0,0.0,99.0,3.0,0.19,-0.05,10.3,-0.03,0.01,0.0,19.09,82.49,-23.82,4980.48,1755695723.8520558,14:15:23
491214.0,70.0,0.0,99.0,3.0,0.17,-0.04,10.3,-0.03,0.01,0.0,19.08,82.49,-23.82,4980.7,1755695723.921909,14:15:23
491235.0,70.0,0.0,99.0,3.0,0.19,-0.05,10.35,-0.02,0.01,0.01,19.07,82.49,-23.82,4980.91,1755695723.9716322,14:15:23
491257.0,70.0,0.0,99.0,3.0,0.17,-0.07,10.3,-0.02,0.01,0.0,19.08,82.5,-23.82,4981.14,1755695724.0224018,14:15:24
491278.0,70.0,0.0,99.0,3.0,0.18,-0.05,10.34,-0.03,0.01,0.01,19.08,82.5,-23.82,4981.36,1755695724.0747268,14:15:24
491300.0,70.0,0.0,99.0,3.0,0.15,-0.05,10.3,-0.03,0.01,0.01,19.09,82.51,-23.82,4981.58,1755695724.1239197,14:15:24
491321.0,70.0,0.0,99.0,3.0,0.16,-0.05,10.34,-0.03,0.01,0.01,19.08,82.51,-23.82,4981.8,1755695724.1736302,14:15:24
491343.0,70.0,0.0,99.0,3.0,0.17,-0.05,10.31,-0.02,0.01,0.01,19.07,82.51,-23.83,4982.03,1755695724.2233443,14:15:24
491364.0,70.0,0.0,99.0,3.0,0.17,-0.04,10.32,-0.03,0.01,0.0,19.09,82.52,-23.83,4982.25,1755695724.2729757,14:15:24
491385.0,70.0,0.0,99.0,3.0,0.17,-0.06,10.3,-0.03,0.01,0.0,19.09,82.52,-23.83,4982.46,1755695724.4180508,14:15:24
491407.0,70.0,0.0,99.0,3.0,0.14,-0.03,10.32,-0.03,0.01,0.0,19.1,82.52,-23.83,4982.69,1755695724.4721441,14:15:24
496235.0,64.0,100.0,90.0,3.0,0.18,-0.06,10.31,-0.02,0.01,0.01,19.09,83.34,-24.07,5032.48,1755695736.99666,14:15:36
496257.0,64.0,100.0,90.0,3.0,0.17,-0.04,10.34,-0.03,0.01,0.01,19.09,83.35,-24.07,5032.71,1755695737.0445738,14:15:37
496279.0,64.0,100.0,90.0,3.0,0.17,-0.06,10.32,-0.03,0.01,0.01,19.09,83.35,-24.07,5032.93,1755695737.1027806,14:15:37
496301.0,64.0,100.0,90.0,3.0,0.16,-0.04,10.27,-0.03,0.01,0.01,19.08,83.35,-24.07,5033.16,1755695737.1523507,14:15:37
496322.0,64.0,100.0,90.0,3.0,0.16,-0.05,10.3,-0.02,0.01,0.01,19.11,83.36,-24.07,5033.38,1755695737.2091887,14:15:37
496344.0,64.0,100.0,90.0,3.0,0.16,-0.05,10.33,-0.03,0.01,0.01,19.11,83.36,-24.07,5033.6,1755695737.2576349,14:15:37
496386.0,64.0,100.0,90.0,3.0,0.18,-0.05,10.3,-0.03,0.01,0.01,19.09,83.37,-24.08,5034.04,1755695737.3616152,14:15:37
496408.0,64.0,100.0,90.0,3.0,0.16,-0.06,10.3,-0.03,0.01,0.01,19.1,83.37,-24.08,5034.26,1755695737.4124086,14:15:37
496429.0,64.0,100.0,90.0,3.0,0.17,-0.05,10.3,-0.02,0.01,0.01,19.11,83.38,-24.08,5034.48,1755695737.4610362,14:15:37
496451.0,64.0,100.0,90.0,3.0,0.17,-0.05,10.28,-0.03,0.01,0.0,19.1,83.38,-24.08,5034.71,1755695737.5205355,14:15:37
496472.0,64.0,100.0,90.0,3.0,0.17,-0.05,10.3,-0.03,0.01,0.01,19.11,83.38,-24.08,5034.92,1755695737.5703251,14:15:37
496494.0,64.0,100.0,90.0,3.0,0.17,-0.06,10.31,-0.03,0.01,0.0,19.11,83.39,-24.08,5035.15,1755695737.621665,14:15:37
496515.0,64.0,100.0,90.0,3.0,0.17,-0.04,10.3,-0.02,0.01,0.0,19.1,83.39,-24.08,5035.36,1755695737.6917336,14:15:37
496536.0,64.0,100.0,90.0,3.0,0.19,-0.06,10.31,-0.03,0.01,0.01,19.09,83.39,-24.08,5035.58,1755695737.747073,14:15:37
496558.0,64.0,100.0,90.0,3.0,0.18,-0.04,10.3,-0.03,0.01,0.01,19.12,83.4,-24.08,5035.81,1755695737.7958527,14:15:37
496579.0,64.0,100.0,90.0,3.0,0.17,-0.06,10.32,-0.03,0.01,0.01,19.09,83.4,-24.09,5036.02,1755695737.84523,14:15:37
496601.0,64.0,100.0,90.0,3.0,0.19,-0.06,10.34,-0.03,0.01,0.01,19.1,83.41,-24.09,5036.25,1755695737.894489,14:15:37
496622.0,64.0,100.0,90.0,3.0,0.16,-0.07,10.32,-0.03,0.01,0.0,19.1,83.41,-24.09,5036.47,1755695737.941665,14:15:37
496643.0,64.0,100.0,90.0,3.0,0.17,-0.05,10.3,-0.02,0.01,0.0,19.09,83.41,-24.09,5036.68,1755695737.9894147,14:15:37
496665.0,64.0,100.0,90.0,3.0,0.18,-0.05,10.31,-0.02,0.01,0.01,19.11,83.42,-24.09,5036.91,1755695738.0426428,14:15:38
496686.0,64.0,100.0,90.0,3.0,0.18,-0.05,10.33,-0.03,0.01,0.0,19.11,83.42,-24.09,5037.13,1755695738.0907004,14:15:38
496707.0,64.0,100.0,90.0,3.0,0.18,-0.05,10.31,-0.03,0.01,0.0,19.1,83.42,-24.09,5037.34,1755695738.1401973,14:15:38
496728.0,64.0,100.0,90.0,3.0,0.16,-0.02,10.26,-0.02,0.01,0.01,19.1,83.43,-24.09,5037.56,1755695738.192273,14:15:38
496749.0,64.0,100.0,90.0,3.0,0.17,-0.03,10.31,-0.02,0.01,0.01,19.1,83.43,-24.09,5037.78,1755695738.2402189,14:15:38
496770.0,64.0,100.0,90.0,3.0,0.16,-0.06,10.3,-0.03,0.01,0.0,19.09,83.43,-24.1,5037.99,1755695738.2901597,14:15:38
496792.0,64.0,100.0,90.0,3.0,0.17,-0.06,10.33,-0.03,0.01,0.01,19.09,83.44,-24.1,5038.22,1755695738.341381,14:15:38
496814.0,64.0,100.0,96.0,3.0,0.16,-0.04,10.31,-0.03,0.01,0.01,19.1,83.44,-24.1,5038.45,1755695738.3913383,14:15:38
496835.0,64.0,100.0,96.0,3.0,0.16,-0.07,10.31,-0.03,0.01,0.0,19.1,83.45,-24.1,5038.66,1755695738.446371,14:15:38
496857.0,64.0,100.0,96.0,3.0,0.17,-0.05,10.3,-0.03,0.01,0.0,19.09,83.45,-24.1,5038.89,1755695738.4959645,14:15:38
496878.0,64.0,100.0,96.0,3.0,0.17,-0.06,10.31,-0.03,0.01,0.0,19.07,83.45,-24.1,5039.11,1755695738.5489547,14:15:38
496900.0,64.0,100.0,96.0,3.0,0.15,-0.04,10.31,-0.03,0.01,0.0,19.1,83.46,-24.1,5039.33,1755695738.5980263,14:15:38
496922.0,64.0,100.0,96.0,3.0,0.18,-0.05,10.28,-0.03,0.01,0.01,19.08,83.46,-24.1,5039.56,1755695738.6483922,14:15:38
496943.0,64.0,100.0,96.0,3.0,0.17,-0.05,10.3,-0.03,0.01,0.0,19.1,83.46,-24.1,5039.78,1755695738.7054093,14:15:38
496965.0,64.0,100.0,96.0,3.0,0.17,-0.06,10.33,-0.02,0.01,0.01,19.11,83.47,-24.11,5040.0,1755695738.754528,14:15:38
496986.0,64.0,100.0,96.0,3.0,0.17,-0.03,10.31,-0.03,0.01,0.0,19.1,83.47,-24.11,5040.22,1755695738.8055742,14:15:38
497007.0,64.0,100.0,96.0,3.0,0.17,-0.03,10.3,-0.03,0.01,0.0,19.11,83.47,-24.11,5040.44,1755695738.8619487,14:15:38
497029.0,64.0,100.0,96.0,3.0,0.16,-0.04,10.3,-0.03,0.01,0.0,19.1,83.48,-24.11,5040.66,1755695738.9154825,14:15:38
497050.0,64.0,100.0,96.0,3.0,0.18,-0.03,10.34,-0.02,0.01,0.01,19.1,83.48,-24.11,5040.88,1755695738.980552,14:15:38
497072.0,64.0,100.0,96.0,3.0,0.17,-0.06,10.3,-0.03,0.01,0.0,19.1,83.49,-24.11,5041.11,1755695739.0323958,14:15:39
497093.0,64.0,100.0,96.0,3.0,0.16,-0.05,10.34,-0.03,0.01,0.0,19.1,83.49,-24.11,5041.32,1755695739.083199,14:15:39
497114.0,64.0,100.0,96.0,3.0,0.16,-0.05,10.3,-0.02,0.01,0.01,19.08,83.49,-24.11,5041.54,1755695739.1416678,14:15:39
497136.0,64.0,100.0,96.0,3.0,0.16,-0.05,10.35,-0.02,0.01,0.0,19.09,83.5,-24.11,5041.77,1755695739.1960204,14:15:39
497157.0,64.0,100.0,96.0,3.0,0.16,-0.06,10.34,-0.03,0.01,0.0,19.09,83.5,-24.11,5041.99,1755695739.3653278,14:15:39
497179.0,64.0,100.0,96.0,3.0,0.17,-0.03,10.32,-0.03,0.01,0.0,19.09,83.5,-24.12,5042.21,1755695739.4177632,14:15:39
497200.0,64.0,100.0,96.0,3.0,0.17,-0.06,10.3,-0.03,0.01,0.01,19.11,83.51,-24.12,5042.43,1755695739.476074,14:15:39
497221.0,64.0,100.0,96.0,3.0,0.16,-0.05,10.3,-0.03,0.01,0.01,19.09,83.51,-24.12,5042.65,1755695739.5811794,14:15:39
497243.0,64.0,100.0,96.0,3.0,0.17,-0.04,10.33,-0.03,0.01,0.01,19.11,83.51,-24.12,5042.87,1755695739.6311035,14:15:39
497264.0,64.0,100.0,96.0,3.0,0.16,-0.05,10.29,-0.02,0.01,0.01,19.11,83.52,-24.12,5043.09,1755695739.687988,14:15:39
497286.0,64.0,100.0,96.0,3.0,0.18,-0.05,10.3,-0.02,0.01,0.01,19.1,83.52,-24.12,5043.31,1755695739.73973,14:15:39
497307.0,64.0,100.0,96.0,3.0,0.17,-0.08,10.3,-0.02,0.01,0.01,19.11,83.52,-24.12,5043.53,1755695739.7858598,14:15:39
497329.0,64.0,100.0,96.0,3.0,0.17,-0.07,10.35,-0.03,0.01,0.0,19.11,83.53,-24.12,5043.76,1755695739.8411124,14:15:39
497350.0,64.0,100.0,96.0,3.0,0.17,-0.05,10.32,-0.03,0.01,0.0,19.1,83.53,-24.13,5043.98,1755695739.889734,14:15:39
497371.0,64.0,100.0,96.0,3.0,0.17,-0.04,10.3,-0.03,0.01,0.01,19.09,83.54,-24.13,5044.19,1755695739.9424355,14:15:39
497392.0,64.0,100.0,96.0,3.0,0.16,-0.06,10.34,-0.03,0.01,0.01,19.1,83.54,-24.13,5044.41,1755695739.991861,14:15:39
497414.0,64.0,100.0,96.0,3.0,0.18,-0.06,10.32,-0.03,0.01,0.0,19.1,83.54,-24.13,5044.64,1755695740.0405893,14:15:40
497436.0,64.0,100.0,96.0,3.0,0.15,-0.05,10.32,-0.03,0.01,0.0,19.08,83.55,-24.13,5044.86,1755695740.0982783,14:15:40
497457.0,64.0,100.0,96.0,3.0,0.17,-0.05,10.31,-0.03,0.01,0.0,19.09,83.55,-24.13,5045.08,1755695740.1483269,14:15:40
497479.0,64.0,100.0,96.0,3.0,0.17,-0.05,10.3,-0.03,0.01,0.01,19.09,83.55,-24.13,5045.31,1755695740.2006626,14:15:40
497500.0,64.0,100.0,96.0,3.0,0.18,-0.05,10.32,-0.03,0.01,0.01,19.08,83.56,-24.13,5045.52,1755695740.2493813,14:15:40
497522.0,64.0,100.0,96.0,3.0,0.18,-0.06,10.3,-0.03,0.01,0.01,19.11,83.56,-24.13,5045.75,1755695740.3003185,14:15:40
497543.0,64.0,100.0,96.0,3.0,0.16,-0.05,10.32,-0.03,0.01,0.0,19.11,83.56,-24.14,5045.97,1755695740.3524978,14:15:40
497565.0,64.0,100.0,96.0,3.0,0.18,-0.06,10.32,-0.03,0.01,0.01,19.1,83.57,-24.14,5046.19,1755695740.401981,14:15:40
497586.0,64.0,100.0,96.0,3.0,0.17,-0.04,10.32,-0.03,0.01,0.01,19.09,83.57,-24.14,5046.41,1755695740.451128,14:15:40
497607.0,64.0,100.0,96.0,3.0,0.18,-0.03,10.31,-0.03,0.01,0.01,19.09,83.58,-24.14,5046.63,1755695740.506161,14:15:40
497629.0,64.0,100.0,96.0,3.0,0.17,-0.03,10.3,-0.03,0.01,0.01,19.1,83.58,-24.14,5046.85,1755695740.559215,14:15:40
497650.0,64.0,100.0,96.0,3.0,0.18,-0.04,10.32,-0.02,0.01,0.0,19.08,83.58,-24.14,5047.07,1755695740.6082876,14:15:40
497672.0,64.0,100.0,96.0,3.0,0.16,-0.04,10.3,-0.03,0.01,0.0,19.1,83.59,-24.14,5047.3,1755695740.6596491,14:15:40
497693.0,64.0,100.0,96.0,3.0,0.16,-0.05,10.3,-0.03,0.01,0.0,19.12,83.59,-24.14,5047.51,1755695740.7078145,14:15:40
497715.0,64.0,100.0,96.0,3.0,0.18,-0.05,10.3,-0.03,0.01,0.0,19.1,83.59,-24.14,5047.74,1755695740.7588532,14:15:40
497736.0,64.0,100.0,96.0,3.0,0.16,-0.06,10.34,-0.03,0.01,0.01,19.07,83.6,-24.14,5047.96,1755695740.8112159,14:15:40
497758.0,64.0,100.0,96.0,3.0,0.18,-0.05,10.31,-0.02,0.01,0.0,19.08,83.6,-24.14,5048.18,1755695740.86134,14:15:40
497779.0,64.0,100.0,96.0,3.0,0.17,-0.05,10.31,-0.03,0.01,0.0,19.09,83.6,-24.15,5048.4,1755695740.9158838,14:15:40
497800.0,64.0,100.0,96.0,3.0,0.17,-0.04,10.31,-0.03,0.01,0.01,19.1,83.61,-24.15,5048.62,1755695740.9680142,14:15:40
497822.0,64.0,100.0,96.0,3.0,0.18,-0.05,10.3,-0.02,0.01,0.0,19.09,83.61,-24.15,5048.84,1755695741.0193815,14:15:41
497843.0,64.0,100.0,96.0,3.0,0.18,-0.04,10.3,-0.03,0.01,0.0,19.09,83.62,-24.15,5049.06,1755695741.0965755,14:15:41
497864.0,64.0,100.0,96.0,3.0,0.17,-0.05,10.3,-0.03,0.01,0.0,19.08,83.62,-24.15,5049.27,1755695741.1671994,14:15:41
497885.0,64.0,100.0,96.0,3.0,0.16,-0.04,10.29,-0.02,0.01,0.0,19.09,83.62,-24.15,5049.49,1755695741.2367034,14:15:41
497906.0,64.0,100.0,96.0,3.0,0.15,-0.06,10.3,-0.03,0.01,0.0,19.08,83.63,-24.15,5049.71,1755695741.2884212,14:15:41
497928.0,64.0,100.0,96.0,3.0,0.17,-0.06,10.33,-0.02,0.01,0.0,19.1,83.63,-24.15,5049.93,1755695741.346085,14:15:41
497949.0,64.0,100.0,96.0,3.0,0.17,-0.06,10.34,-0.03,0.01,0.0,19.08,83.63,-24.15,5050.15,1755695741.5371702,14:15:41
497970.0,64.0,100.0,96.0,3.0,0.17,-0.06,10.32,-0.03,0.01,0.01,19.08,83.64,-24.16,5050.37,1755695741.628049,14:15:41
497992.0,64.0,100.0,96.0,3.0,0.18,-0.06,10.31,-0.03,0.01,0.01,19.08,83.64,-24.16,5050.6,1755695741.719114,14:15:41
498013.0,64.0,100.0,96.0,3.0,0.17,-0.05,10.32,-0.02,0.01,0.0,19.08,83.64,-24.16,5050.81,1755695741.7722473,14:15:41
498035.0,64.0,100.0,96.0,3.0,0.18,-0.03,10.3,-0.03,0.01,0.0,19.1,83.65,-24.16,5051.04,1755695741.8301654,14:15:41
498056.0,64.0,100.0,96.0,3.0,0.17,-0.04,10.29,-0.03,0.01,0.0,19.07,83.65,-24.16,5051.26,1755695741.8857598,14:15:41
498077.0,64.0,100.0,96.0,3.0,0.18,-0.06,10.31,-0.03,0.01,0.0,19.08,83.66,-24.16,5051.47,1755695741.9443772,14:15:41
498099.0,64.0,100.0,96.0,3.0,0.16,-0.06,10.3,-0.02,0.01,0.0,19.09,83.66,-24.16,5051.7,1755695741.995968,14:15:41
498120.0,64.0,100.0,96.0,3.0,0.17,-0.04,10.3,-0.03,0.01,0.01,19.09,83.66,-24.16,5051.91,1755695742.054531,14:15:42
498143.0,64.0,100.0,96.0,3.0,0.16,-0.06,10.31,-0.02,0.01,0.0,19.08,83.67,-24.16,5052.15,1755695742.110428,14:15:42
498164.0,64.0,100.0,96.0,3.0,0.19,-0.05,10.32,-0.03,0.01,0.01,19.08,83.67,-24.17,5052.37,1755695742.1607628,14:15:42
498186.0,64.0,100.0,96.0,3.0,0.17,-0.05,10.3,-0.02,0.01,0.0,19.07,83.67,-24.17,5052.6,1755695742.2254639,14:15:42
498207.0,64.0,100.0,96.0,3.0,0.17,-0.05,10.3,-0.03,0.01,0.0,19.08,83.68,-24.17,5052.81,1755695742.276145,14:15:42
498228.0,64.0,100.0,96.0,3.0,0.17,-0.05,10.34,-0.03,0.01,0.01,19.08,83.68,-24.17,5053.03,1755695742.3313143,14:15:42
498291.0,64.0,100.0,96.0,3.0,0.17,-0.05,10.31,-0.03,0.01,0.0,19.1,83.69,-24.17,5053.68,1755695742.431398,14:15:42
498312.0,13.0,100.0,96.0,3.0,0.17,-0.05,10.3,-0.03,0.01,0.01,19.09,83.7,-24.17,5053.9,1755695742.4803827,14:15:42
498334.0,13.0,100.0,96.0,3.0,0.18,-0.03,10.31,-0.03,0.01,0.0,19.08,83.7,-24.17,5054.12,1755695742.5352461,14:15:42
498356.0,13.0,100.0,96.0,3.0,0.18,-0.05,10.32,-0.02,0.01,0.01,19.08,83.7,-24.18,5054.35,1755695742.5929787,14:15:42
498377.0,13.0,100.0,96.0,3.0,0.19,-0.08,10.3,-0.02,0.01,0.01,19.09,83.71,-24.18,5054.56,1755695742.6450315,14:15:42
498399.0,64.0,100.0,96.0,3.0,0.18,-0.03,10.31,-0.02,0.01,0.01,19.09,83.71,-24.18,5054.79,1755695742.6957073,14:15:42
498420.0,64.0,100.0,96.0,3.0,0.18,-0.07,10.31,-0.03,0.01,0.0,19.09,83.71,-24.18,5055.01,1755695742.7431183,14:15:42
498442.0,64.0,100.0,96.0,3.0,0.18,-0.04,10.34,-0.03,0.01,0.0,19.08,83.72,-24.18,5055.23,1755695742.7940607,14:15:42
498463.0,64.0,100.0,96.0,3.0,0.17,-0.04,10.29,-0.03,0.01,0.0,19.09,83.72,-24.18,5055.45,1755695742.8436866,14:15:42
498484.0,64.0,100.0,96.0,3.0,0.17,-0.03,10.32,-0.02,0.01,0.0,19.08,83.73,-24.18,5055.67,1755695742.8911242,14:15:42
498506.0,64.0,100.0,96.0,3.0,0.16,-0.05,10.3,-0.02,0.01,0.0,19.09,83.73,-24.18,5055.89,1755695742.942562,14:15:42
498527.0,64.0,100.0,96.0,3.0,0.18,-0.05,10.3,-0.02,0.01,0.01,19.08,83.73,-24.18,5056.11,1755695742.9918592,14:15:42
498550.0,64.0,100.0,96.0,3.0,0.18,-0.06,10.33,-0.03,0.01,0.01,19.07,83.74,-24.18,5056.35,1755695743.0459943,14:15:43
498571.0,64.0,100.0,96.0,3.0,0.16,-0.05,10.32,-0.03,0.01,0.0,19.08,83.74,-24.19,5056.56,1755695743.0946622,14:15:43
498593.0,64.0,100.0,96.0,3.0,0.19,-0.04,10.33,-0.03,0.01,0.01,19.07,83.74,-24.19,5056.79,1755695743.145697,14:15:43
498614.0,64.0,100.0,96.0,3.0,0.18,-0.04,10.31,-0.02,0.01,0.01,19.11,83.75,-24.19,5057.01,1755695743.1940112,14:15:43
498636.0,64.0,100.0,96.0,3.0,0.16,-0.04,10.34,-0.02,0.01,0.0,19.09,83.75,-24.19,5057.24,1755695743.2542727,14:15:43
498658.0,64.0,100.0,96.0,3.0,0.16,-0.05,10.33,-0.03,0.01,0.0,19.07,83.76,-24.19,5057.46,1755695743.308959,14:15:43
498679.0,64.0,100.0,96.0,3.0,0.19,-0.05,10.29,-0.03,0.01,0.0,19.07,83.76,-24.19,5057.68,1755695743.3617892,14:15:43
498701.0,64.0,100.0,96.0,3.0,0.17,-0.04,10.31,-0.02,0.01,0.01,19.09,83.76,-24.19,5057.91,1755695743.415287,14:15:43
498722.0,64.0,100.0,96.0,3.0,0.17,-0.06,10.31,-0.02,0.01,0.0,19.09,83.77,-24.19,5058.12,1755695743.4638622,14:15:43
498744.0,64.0,100.0,96.0,3.0,0.19,-0.06,10.3,-0.03,0.01,0.01,19.09,83.77,-24.19,5058.35,1755695743.512269,14:15:43
498766.0,64.0,100.0,96.0,3.0,0.18,-0.06,10.3,-0.03,0.01,0.01,19.08,83.78,-24.2,5058.58,1755695743.572191,14:15:43
498787.0,64.0,100.0,96.0,3.0,0.16,-0.05,10.3,-0.03,0.01,0.01,19.08,83.78,-24.2,5058.79,1755695743.622612,14:15:43
498809.0,64.0,100.0,96.0,3.0,0.16,-0.06,10.32,-0.03,0.01,0.01,19.08,83.78,-24.2,5059.02,1755695743.678298,14:15:43
498831.0,64.0,100.0,96.0,3.0,0.17,-0.06,10.32,-0.03,0.01,0.01,19.08,83.79,-24.2,5059.25,1755695743.7288103,14:15:43
498853.0,64.0,100.0,96.0,3.0,0.17,-0.06,10.32,-0.03,0.01,0.0,19.09,83.79,-24.2,5059.47,1755695743.7811143,14:15:43
498874.0,64.0,100.0,96.0,3.0,0.18,-0.05,10.3,-0.03,0.01,0.0,19.08,83.79,-24.2,5059.69,1755695743.8323848,14:15:43
498895.0,64.0,100.0,96.0,3.0,0.17,-0.04,10.31,-0.03,0.01,0.0,19.07,83.8,-24.2,5059.91,1755695743.8845658,14:15:43
498917.0,64.0,100.0,96.0,3.0,0.18,-0.05,10.34,-0.03,0.01,0.01,19.07,83.8,-24.2,5060.13,1755695743.9766607,14:15:43
498938.0,64.0,100.0,96.0,3.0,0.17,-0.07,10.31,-0.03,0.01,0.01,19.09,83.8,-24.2,5060.35,1755695744.0253315,14:15:44
498960.0,64.0,100.0,96.0,3.0,0.18,-0.04,10.3,-0.03,0.01,0.01,19.07,83.81,-24.21,5060.58,1755695744.0833395,14:15:44
498981.0,64.0,100.0,96.0,3.0,0.17,-0.06,10.29,-0.03,0.01,0.01,19.07,83.81,-24.21,5060.79,1755695744.1338773,14:15:44
499003.0,64.0,100.0,96.0,3.0,0.18,-0.04,10.32,-0.03,0.01,0.0,19.07,83.82,-24.21,5061.02,1755695744.1863558,14:15:44
499024.0,64.0,100.0,96.0,3.0,0.17,-0.06,10.29,-0.02,0.01,0.01,19.08,83.82,-24.21,5061.24,1755695744.2371254,14:15:44
499045.0,64.0,100.0,96.0,3.0,0.18,-0.04,10.3,-0.02,0.01,0.0,19.09,83.82,-24.21,5061.45,1755695744.285771,14:15:44
499066.0,64.0,100.0,96.0,3.0,0.17,-0.04,10.31,-0.03,0.01,0.01,19.08,83.83,-24.21,5061.67,1755695744.3331797,14:15:44
499087.0,63.0,100.0,98.0,3.0,0.18,-0.04,10.31,-0.03,0.01,0.01,19.09,83.83,-24.21,5061.88,1755695744.3835776,14:15:44
499109.0,63.0,100.0,98.0,3.0,0.16,-0.05,10.32,-0.02,0.01,0.0,19.08,83.83,-24.21,5062.11,1755695744.4338605,14:15:44
499130.0,63.0,100.0,98.0,3.0,0.16,-0.07,10.32,-0.03,0.01,0.0,19.09,83.84,-24.21,5062.33,1755695744.4855108,14:15:44
499151.0,63.0,100.0,98.0,3.0,0.13,-0.07,10.33,-0.02,0.01,0.0,19.08,83.84,-24.22,5062.54,1755695744.5338469,14:15:44
499173.0,63.0,100.0,98.0,3.0,0.15,-0.06,10.3,-0.03,0.01,0.01,19.09,83.84,-24.22,5062.77,1755695744.5835605,14:15:44
499194.0,63.0,100.0,98.0,3.0,0.17,-0.04,10.3,-0.02,0.01,0.0,19.09,83.85,-24.22,5062.99,1755695744.6338966,14:15:44
499216.0,63.0,100.0,98.0,3.0,0.15,-0.03,10.31,-0.03,0.01,0.01,19.07,83.85,-24.22,5063.21,1755695744.6848972,14:15:44
499237.0,63.0,100.0,98.0,3.0,0.19,-0.07,10.31,-0.02,0.01,0.0,19.08,83.85,-24.22,5063.43,1755695744.7367356,14:15:44
499280.0,63.0,100.0,98.0,3.0,0.17,-0.06,10.33,-0.03,0.01,0.0,19.11,83.86,-24.22,5063.88,1755695744.8419557,14:15:44
499301.0,63.0,100.0,98.0,3.0,0.18,-0.06,10.36,-0.03,0.01,0.01,19.1,83.87,-24.22,5064.09,1755695744.8938334,14:15:44
499323.0,63.0,100.0,98.0,3.0,0.18,-0.03,10.28,-0.02,0.01,0.0,19.07,83.87,-24.22,5064.32,1755695744.947115,14:15:44
499344.0,63.0,100.0,98.0,3.0,0.17,-0.06,10.31,-0.02,0.01,0.0,19.09,83.87,-24.23,5064.54,1755695744.9999862,14:15:44
499366.0,63.0,100.0,98.0,3.0,0.16,-0.05,10.33,-0.02,0.01,0.01,19.08,83.88,-24.23,5064.76,1755695745.0515332,14:15:45
499387.0,63.0,100.0,98.0,3.0,0.16,-0.06,10.31,-0.03,0.01,0.01,19.08,83.88,-24.23,5064.98,1755695745.1031697,14:15:45
499408.0,63.0,100.0,98.0,3.0,0.16,-0.07,10.28,-0.03,0.01,0.0,19.08,83.88,-24.23,5065.2,1755695745.1572962,14:15:45
500399.0,63.0,100.0,97.0,3.0,0.17,-0.04,10.33,-0.03,0.01,0.01,19.1,84.05,-24.28,5075.42,1755695747.6876242,14:15:47
500420.0,63.0,100.0,97.0,3.0,0.17,-0.05,10.33,-0.02,0.01,0.0,19.09,84.06,-24.28,5075.63,1755695747.7402973,14:15:47
500441.0,63.0,100.0,97.0,3.0,0.17,-0.04,10.33,-0.03,0.01,0.0,19.08,84.06,-24.28,5075.85,1755695747.7908988,14:15:47
500463.0,63.0,100.0,97.0,3.0,0.17,-0.06,10.3,-0.02,0.01,0.01,19.07,84.06,-24.28,5076.08,1755695747.8420346,14:15:47
500485.0,63.0,100.0,97.0,3.0,0.17,-0.05,10.31,-0.03,0.01,0.0,19.09,84.07,-24.28,5076.3,1755695747.8921025,14:15:47
500507.0,63.0,100.0,97.0,3.0,0.16,-0.05,10.32,-0.03,0.01,0.0,19.09,84.07,-24.28,5076.53,1755695747.9445245,14:15:47
500528.0,63.0,100.0,97.0,3.0,0.17,-0.06,10.34,-0.02,0.01,0.0,19.08,84.07,-24.28,5076.75,1755695747.99551,14:15:47
500549.0,63.0,100.0,97.0,3.0,0.17,-0.04,10.32,-0.03,0.01,0.01,19.09,84.08,-24.28,5076.97,1755695748.0604136,14:15:48
500571.0,63.0,100.0,97.0,3.0,0.19,-0.05,10.32,-0.02,0.01,0.0,19.09,84.08,-24.28,5077.19,1755695748.1140409,14:15:48
500592.0,63.0,100.0,97.0,3.0,0.18,-0.05,10.32,-0.03,0.01,0.01,19.11,84.09,-24.29,5077.41,1755695748.1663575,14:15:48
500615.0,63.0,100.0,97.0,3.0,0.16,-0.04,10.31,-0.03,0.01,0.0,19.1,84.09,-24.29,5077.65,1755695748.2166743,14:15:48
500636.0,63.0,100.0,97.0,3.0,0.15,-0.05,10.3,-0.03,0.01,0.01,19.07,84.09,-24.29,5077.86,1755695748.2697494,14:15:48
500658.0,63.0,100.0,97.0,3.0,0.19,-0.06,10.33,-0.02,0.01,0.0,19.09,84.1,-24.29,5078.09,1755695748.3196394,14:15:48
500679.0,63.0,100.0,97.0,3.0,0.15,-0.05,10.3,-0.02,0.01,0.01,19.08,84.1,-24.29,5078.31,1755695748.3802795,14:15:48
500700.0,63.0,100.0,97.0,3.0,0.16,-0.05,10.31,-0.03,0.01,0.0,19.1,84.1,-24.29,5078.52,1755695748.4289634,14:15:48
500722.0,63.0,100.0,97.0,3.0,0.17,-0.05,10.31,-0.03,0.01,0.0,19.08,84.11,-24.29,5078.75,1755695748.4807851,14:15:48
500743.0,63.0,100.0,97.0,3.0,0.2,-0.05,10.33,-0.03,0.01,0.0,19.08,84.11,-24.29,5078.97,1755695748.531623,14:15:48
500765.0,63.0,100.0,97.0,3.0,0.17,-0.06,10.31,-0.03,0.01,0.0,19.09,84.11,-24.29,5079.19,1755695748.5818427,14:15:48
500786.0,63.0,100.0,97.0,3.0,0.17,-0.04,10.3,-0.03,0.01,0.0,19.1,84.12,-24.3,5079.41,1755695748.6318874,14:15:48
500808.0,63.0,100.0,97.0,3.0,0.19,-0.05,10.33,-0.03,0.01,0.01,19.1,84.12,-24.3,5079.64,1755695748.6822782,14:15:48
500829.0,63.0,100.0,97.0,3.0,0.15,-0.04,10.3,-0.03,0.01,0.0,19.1,84.13,-24.3,5079.85,1755695748.7317715,14:15:48
500850.0,63.0,100.0,97.0,3.0,0.17,-0.06,10.29,-0.03,0.01,0.01,19.09,84.13,-24.3,5080.07,1755695748.7828639,14:15:48
500871.0,63.0,100.0,97.0,3.0,0.16,-0.05,10.32,-0.02,0.01,0.0,19.1,84.13,-24.3,5080.29,1755695748.8304543,14:15:48
500893.0,63.0,100.0,97.0,3.0,0.17,-0.05,10.33,-0.03,0.01,0.01,19.09,84.14,-24.3,5080.51,1755695748.8834543,14:15:48
500914.0,63.0,100.0,97.0,3.0,0.18,-0.06,10.31,-0.02,0.01,0.01,19.09,84.14,-24.3,5080.73,1755695748.9307306,14:15:48
500936.0,63.0,100.0,97.0,3.0,0.15,-0.06,10.34,-0.02,0.01,0.0,19.09,84.14,-24.3,5080.96,1755695748.9833257,14:15:48
500957.0,63.0,100.0,97.0,3.0,0.16,-0.04,10.34,-0.03,0.01,0.0,19.09,84.15,-24.3,5081.17,1755695749.0317714,14:15:49
500978.0,63.0,100.0,97.0,3.0,0.16,-0.07,10.3,-0.03,0.01,0.0,19.09,84.15,-24.31,5081.39,1755695749.0891373,14:15:49
501001.0,63.0,100.0,97.0,3.0,0.16,-0.07,10.33,-0.03,0.01,0.01,19.07,84.15,-24.31,5081.63,1755695749.1377482,14:15:49
501022.0,63.0,100.0,97.0,3.0,0.16,-0.08,10.3,-0.03,0.01,0.0,19.09,84.16,-24.31,5081.85,1755695749.198038,14:15:49
501043.0,63.0,100.0,97.0,3.0,0.17,-0.05,10.3,-0.03,0.01,0.01,19.1,84.16,-24.31,5082.06,1755695749.2473543,14:15:49
501065.0,63.0,100.0,97.0,3.0,0.17,-0.05,10.3,-0.03,0.01,0.0,19.08,84.16,-24.31,5082.29,1755695749.2964375,14:15:49
501086.0,63.0,100.0,97.0,3.0,0.16,-0.05,10.3,-0.03,0.01,0.01,19.11,84.17,-24.31,5082.5,1755695749.3494444,14:15:49
501109.0,63.0,100.0,97.0,3.0,0.19,-0.06,10.33,-0.03,0.01,0.01,19.09,84.17,-24.31,5082.74,1755695749.3962147,14:15:49
501130.0,63.0,100.0,97.0,3.0,0.16,-0.07,10.28,-0.03,0.01,0.0,19.09,84.17,-24.31,5082.96,1755695749.4445255,14:15:49
501151.0,63.0,100.0,97.0,3.0,0.19,-0.05,10.3,-0.02,0.01,0.0,19.09,84.18,-24.32,5083.17,1755695749.4974775,14:15:49
501173.0,63.0,100.0,97.0,3.0,0.16,-0.06,10.32,-0.02,0.01,0.0,19.09,84.18,-24.32,5083.4,1755695749.5460746,14:15:49
501195.0,63.0,100.0,97.0,3.0,0.16,-0.05,10.33,-0.02,0.01,0.01,19.09,84.19,-24.32,5083.63,1755695749.6064239,14:15:49
501217.0,63.0,100.0,97.0,3.0,0.15,-0.05,10.34,-0.03,0.01,0.01,19.09,84.19,-24.32,5083.86,1755695749.70629,14:15:49
501238.0,63.0,100.0,97.0,3.0,0.15,-0.05,10.34,-0.03,0.01,0.0,19.07,84.19,-24.32,5084.07,1755695749.7570035,14:15:49
501260.0,63.0,100.0,97.0,3.0,0.17,-0.05,10.32,-0.03,0.01,0.01,19.09,84.2,-24.32,5084.3,1755695749.811454,14:15:49
501281.0,63.0,100.0,97.0,3.0,0.16,-0.05,10.31,-0.03,0.01,0.01,19.09,84.2,-24.32,5084.52,1755695749.8602455,14:15:49
501303.0,63.0,100.0,97.0,3.0,0.17,-0.06,10.3,-0.03,0.01,0.0,19.1,84.2,-24.32,5084.74,1755695749.9101393,14:15:49
501325.0,63.0,100.0,97.0,3.0,0.16,-0.05,10.3,-0.02,0.01,0.0,19.09,84.21,-24.33,5084.97,1755695749.961174,14:15:49
501346.0,63.0,100.0,97.0,3.0,0.16,-0.06,10.32,-0.02,0.0,0.01,19.09,84.21,-24.33,5085.19,1755695750.0103226,14:15:50
501368.0,63.0,100.0,97.0,3.0,0.17,-0.05,10.32,-0.02,0.01,0.0,19.1,84.21,-24.33,5085.41,1755695750.0602903,14:15:50
501389.0,63.0,100.0,97.0,3.0,0.16,-0.06,10.3,-0.02,0.01,0.0,19.12,84.22,-24.33,5085.63,1755695750.2242937,14:15:50
501410.0,63.0,100.0,97.0,3.0,0.17,-0.05,10.3,-0.02,0.01,0.01,19.09,84.22,-24.33,5085.85,1755695750.2745988,14:15:50
501432.0,63.0,100.0,97.0,3.0,0.18,-0.04,10.32,-0.03,0.01,0.0,19.09,84.22,-24.33,5086.07,1755695750.3247676,14:15:50
501494.0,63.0,100.0,97.0,3.0,0.18,-0.05,10.29,-0.03,0.01,0.01,19.09,84.24,-24.33,5086.71,1755695750.4242046,14:15:50
501515.0,63.0,100.0,97.0,3.0,0.17,-0.04,10.32,-0.03,0.01,0.01,19.08,84.24,-24.34,5086.93,1755695750.4715822,14:15:50
501537.0,63.0,100.0,97.0,3.0,0.18,-0.05,10.3,-0.03,0.01,0.01,19.08,84.24,-24.34,5087.16,1755695750.5242248,14:15:50
501558.0,63.0,100.0,97.0,3.0,0.18,-0.06,10.28,-0.03,0.01,0.01,19.1,84.25,-24.34,5087.37,1755695750.574808,14:15:50
501580.0,63.0,100.0,97.0,3.0,0.18,-0.05,10.32,-0.02,0.01,0.01,19.09,84.25,-24.34,5087.6,1755695750.626102,14:15:50
501601.0,63.0,100.0,97.0,3.0,0.17,-0.05,10.36,-0.02,0.01,0.0,19.1,84.25,-24.34,5087.82,1755695750.6748633,14:15:50
501622.0,63.0,100.0,97.0,3.0,0.18,-0.04,10.3,-0.03,0.01,0.01,19.09,84.26,-24.34,5088.03,1755695750.7255113,14:15:50
501644.0,63.0,100.0,97.0,3.0,0.18,-0.05,10.32,-0.03,0.01,0.0,19.07,84.26,-24.34,5088.26,1755695750.7762942,14:15:50
501665.0,63.0,100.0,97.0,3.0,0.17,-0.05,10.31,-0.03,0.01,0.01,19.08,84.27,-24.34,5088.48,1755695750.8268542,14:15:50
501686.0,63.0,100.0,97.0,3.0,0.18,-0.05,10.3,-0.03,0.01,0.0,19.09,84.27,-24.34,5088.69,1755695750.8736715,14:15:50
501708.0,63.0,100.0,97.0,3.0,0.16,-0.04,10.33,-0.03,0.01,0.01,19.09,84.27,-24.34,5088.92,1755695750.9260974,14:15:50
501730.0,63.0,100.0,97.0,3.0,0.17,-0.05,10.29,-0.03,0.01,0.01,19.09,84.28,-24.35,5089.15,1755695751.005087,14:15:51
501751.0,63.0,100.0,97.0,3.0,0.17,-0.05,10.3,-0.03,0.01,0.0,19.08,84.28,-24.35,5089.36,1755695751.1449192,14:15:51
501773.0,63.0,100.0,97.0,3.0,0.17,-0.04,10.29,-0.02,0.01,0.0,19.1,84.28,-24.35,5089.59,1755695751.1954947,14:15:51
501795.0,63.0,100.0,97.0,3.0,0.18,-0.06,10.3,-0.03,0.01,0.0,19.08,84.29,-24.35,5089.82,1755695751.245968,14:15:51
501817.0,63.0,100.0,97.0,3.0,0.16,-0.06,10.3,-0.03,0.01,0.0,19.09,84.29,-24.35,5090.04,1755695751.2944446,14:15:51
501839.0,63.0,100.0,97.0,3.0,0.17,-0.05,10.31,-0.03,0.01,0.0,19.1,84.3,-24.35,5090.27,1755695751.3478875,14:15:51
501860.0,63.0,100.0,97.0,3.0,0.2,-0.05,10.3,-0.02,0.01,0.0,19.09,84.3,-24.35,5090.49,1755695751.398954,14:15:51
501883.0,63.0,100.0,97.0,3.0,0.19,-0.03,10.3,-0.03,0.01,0.01,19.09,84.3,-24.35,5090.72,1755695751.451759,14:15:51
501904.0,63.0,100.0,97.0,3.0,0.14,-0.06,10.31,-0.03,0.01,0.0,19.09,84.31,-24.35,5090.94,1755695751.5045042,14:15:51
501926.0,63.0,100.0,96.0,3.0,0.18,-0.04,10.32,-0.03,0.01,0.0,19.08,84.31,-24.36,5091.17,1755695751.5557818,14:15:51
501947.0,63.0,100.0,96.0,3.0,0.17,-0.06,10.32,-0.03,0.01,0.01,19.08,84.31,-24.36,5091.38,1755695751.6037714,14:15:51
501968.0,63.0,100.0,96.0,3.0,0.16,-0.06,10.31,-0.02,0.01,0.01,19.07,84.32,-24.36,5091.6,1755695751.653165,14:15:51
501990.0,63.0,100.0,96.0,3.0,0.17,-0.05,10.31,-0.03,0.01,0.01,19.08,84.32,-24.36,5091.83,1755695751.7051442,14:15:51
502011.0,63.0,100.0,96.0,3.0,0.16,-0.06,10.31,-0.02,0.01,0.0,19.09,84.32,-24.36,5092.04,1755695751.7558606,14:15:51
502033.0,63.0,100.0,96.0,3.0,0.18,-0.04,10.33,-0.02,0.01,0.01,19.1,84.33,-24.36,5092.27,1755695751.8049984,14:15:51
502054.0,63.0,100.0,96.0,3.0,0.16,-0.06,10.32,-0.02,0.01,0.01,19.1,84.33,-24.36,5092.49,1755695751.8552992,14:15:51
502075.0,63.0,100.0,96.0,3.0,0.18,-0.06,10.3,-0.02,0.01,0.0,19.08,84.34,-24.36,5092.7,1755695751.9035914,14:15:51
502097.0,63.0,100.0,96.0,3.0,0.17,-0.06,10.31,-0.02,0.01,0.01,19.1,84.34,-24.36,5092.93,1755695751.9540708,14:15:51
502118.0,63.0,100.0,96.0,3.0,0.16,-0.04,10.32,-0.02,0.01,0.0,19.09,84.34,-24.37,5093.15,1755695752.0033195,14:15:52
502140.0,63.0,100.0,96.0,3.0,0.17,-0.07,10.32,-0.03,0.01,0.0,19.09,84.35,-24.37,5093.37,1755695752.056551,14:15:52
502161.0,63.0,100.0,96.0,3.0,0.16,-0.03,10.34,-0.03,0.01,0.0,19.07,84.35,-24.37,5093.59,1755695752.1069372,14:15:52
502183.0,63.0,100.0,96.0,3.0,0.17,-0.04,10.33,-0.02,0.01,0.0,19.09,84.35,-24.37,5093.82,1755695752.160051,14:15:52
502204.0,63.0,100.0,96.0,3.0,0.17,-0.05,10.32,-0.03,0.01,0.0,19.07,84.36,-24.37,5094.04,1755695752.209261,14:15:52
502226.0,63.0,100.0,96.0,3.0,0.15,-0.05,10.32,-0.03,0.01,0.0,19.09,84.36,-24.37,5094.26,1755695752.2592773,14:15:52
502248.0,63.0,100.0,96.0,3.0,0.17,-0.05,10.33,-0.03,0.01,0.0,19.09,84.36,-24.37,5094.49,1755695752.3079522,14:15:52
502269.0,63.0,100.0,96.0,3.0,0.16,-0.05,10.31,-0.03,0.01,0.0,19.1,84.37,-24.37,5094.71,1755695752.3754208,14:15:52
502291.0,63.0,100.0,96.0,3.0,0.16,-0.06,10.3,-0.03,0.01,0.01,19.09,84.37,-24.37,5094.93,1755695752.4736812,14:15:52
502312.0,63.0,100.0,96.0,3.0,0.17,-0.05,10.32,-0.03,0.01,0.01,19.09,84.37,-24.38,5095.15,1755695752.5217495,14:15:52
502333.0,63.0,100.0,96.0,3.0,0.16,-0.05,10.33,-0.03,0.01,0.01,19.09,84.38,-24.38,5095.37,1755695752.5714588,14:15:52
502355.0,63.0,100.0,96.0,3.0,0.16,-0.04,10.33,-0.02,0.01,0.01,19.08,84.38,-24.38,5095.59,1755695752.6209154,14:15:52
502376.0,63.0,100.0,96.0,3.0,0.19,-0.02,10.3,-0.03,0.01,0.0,19.08,84.39,-24.38,5095.81,1755695752.671534,14:15:52
502398.0,63.0,100.0,96.0,3.0,0.17,-0.05,10.32,-0.03,0.01,0.0,19.08,84.39,-24.38,5096.04,1755695752.71926,14:15:52
502419.0,63.0,100.0,96.0,3.0,0.17,-0.03,10.32,-0.03,0.01,0.0,19.09,84.39,-24.38,5096.25,1755695752.7774422,14:15:52
502440.0,63.0,100.0,96.0,3.0,0.19,-0.06,10.3,-0.03,0.01,0.0,19.08,84.4,-24.38,5096.47,1755695752.8255413,14:15:52
502462.0,63.0,100.0,96.0,3.0,0.17,-0.06,10.3,-0.02,0.01,0.0,19.08,84.4,-24.38,5096.7,1755695752.8762405,14:15:52
502483.0,64.0,100.0,98.0,3.0,0.17,-0.05,10.34,-0.03,0.01,0.0,19.08,84.4,-24.38,5096.91,1755695752.925655,14:15:52
502505.0,64.0,100.0,98.0,3.0,0.16,-0.05,10.31,-0.03,0.01,0.01,19.08,84.41,-24.38,5097.14,1755695753.08752,14:15:53
502526.0,64.0,100.0,98.0,3.0,0.17,-0.05,10.28,-0.02,0.01,0.0,19.1,84.41,-24.39,5097.36,1755695753.1344292,14:15:53
502547.0,64.0,100.0,98.0,3.0,0.17,-0.04,10.3,-0.03,0.01,0.01,19.08,84.41,-24.39,5097.57,1755695753.184345,14:15:53
502569.0,66.0,100.0,99.0,3.0,0.18,-0.04,10.31,-0.02,0.01,0.01,19.11,84.42,-24.39,5097.8,1755695753.2461581,14:15:53
502590.0,66.0,100.0,99.0,3.0,0.17,-0.08,10.31,-0.02,0.01,0.01,19.09,84.42,-24.39,5098.02,1755695753.2993786,14:15:53
502612.0,66.0,100.0,99.0,3.0,0.18,-0.06,10.36,-0.02,0.01,0.0,19.09,84.43,-24.39,5098.24,1755695753.352179,14:15:53
502634.0,66.0,100.0,99.0,3.0,0.18,-0.06,10.3,-0.03,0.01,0.0,19.09,84.43,-24.39,5098.47,1755695753.406042,14:15:53
502656.0,66.0,100.0,99.0,3.0,0.16,-0.04,10.3,-0.03,0.01,0.0,19.1,84.43,-24.39,5098.7,1755695753.4597273,14:15:53
502677.0,66.0,100.0,99.0,3.0,0.17,-0.04,10.32,-0.02,0.01,0.0,19.1,84.44,-24.39,5098.91,1755695753.5092893,14:15:53
502698.0,66.0,100.0,99.0,3.0,0.15,-0.04,10.31,-0.03,0.01,0.01,19.11,84.44,-24.39,5099.13,1755695753.5597203,14:15:53
502720.0,66.0,100.0,99.0,3.0,0.17,-0.04,10.3,-0.03,0.01,0.0,19.11,84.44,-24.39,5099.36,1755695753.6102993,14:15:53
502741.0,66.0,100.0,99.0,3.0,0.17,-0.03,10.31,-0.03,0.01,0.0,19.1,84.45,-24.4,5099.57,1755695753.6729114,14:15:53
502763.0,66.0,100.0,99.0,3.0,0.16,-0.05,10.29,-0.03,0.01,0.0,19.09,84.45,-24.4,5099.8,1755695753.7540357,14:15:53
502784.0,66.0,100.0,99.0,3.0,0.17,-0.03,10.31,-0.03,0.01,0.0,19.08,84.46,-24.4,5100.02,1755695753.8028286,14:15:53
502805.0,66.0,100.0,99.0,3.0,0.15,-0.05,10.34,-0.03,0.01,0.0,19.08,84.46,-24.4,5100.23,1755695753.8509128,14:15:53
502827.0,66.0,100.0,99.0,3.0,0.17,-0.04,10.31,-0.03,0.01,0.01,19.1,84.46,-24.4,5100.46,1755695753.905878,14:15:53
502848.0,66.0,100.0,99.0,3.0,0.18,-0.05,10.32,-0.02,0.01,0.0,19.09,84.47,-24.4,5100.68,1755695753.9582105,14:15:53
502870.0,66.0,100.0,99.0,3.0,0.18,-0.05,10.31,-0.03,0.01,0.0,19.09,84.47,-24.4,5100.9,1755695754.0217848,14:15:54
502891.0,66.0,100.0,99.0,3.0,0.14,-0.07,10.29,-0.03,0.01,0.0,19.11,84.47,-24.4,5101.12,1755695754.0798204,14:15:54
502913.0,66.0,100.0,99.0,3.0,0.16,-0.05,10.3,-0.03,0.01,0.01,19.09,84.48,-24.4,5101.35,1755695754.1408215,14:15:54
502935.0,66.0,100.0,99.0,3.0,0.16,-0.06,10.3,-0.03,0.01,0.0,19.09,84.48,-24.41,5101.57,1755695754.1906328,14:15:54
502956.0,66.0,100.0,99.0,3.0,0.16,-0.06,10.32,-0.03,0.01,0.01,19.1,84.48,-24.41,5101.79,1755695754.2431538,14:15:54
502978.0,66.0,100.0,99.0,3.0,0.18,-0.06,10.3,-0.03,0.01,0.0,19.09,84.49,-24.41,5102.02,1755695754.2941647,14:15:54
502999.0,66.0,100.0,99.0,3.0,0.17,-0.05,10.32,-0.03,0.01,0.0,19.11,84.49,-24.41,5102.23,1755695754.34443,14:15:54
503022.0,66.0,100.0,99.0,3.0,0.16,-0.03,10.3,-0.03,0.01,0.01,19.09,84.49,-24.41,5102.47,1755695754.4026873,14:15:54
503044.0,66.0,100.0,99.0,3.0,0.19,-0.05,10.32,-0.03,0.01,0.0,19.09,84.5,-24.41,5102.7,1755695754.4524212,14:15:54
503066.0,66.0,100.0,99.0,3.0,0.18,-0.05,10.3,-0.02,0.01,0.01,19.1,84.5,-24.41,5102.92,1755695754.5110006,14:15:54
503087.0,66.0,100.0,99.0,3.0,0.17,-0.04,10.29,-0.03,0.01,0.0,19.09,84.51,-24.41,5103.14,1755695754.5588293,14:15:54
503108.0,66.0,100.0,99.0,3.0,0.17,-0.06,10.31,-0.02,0.01,0.0,19.09,84.51,-24.41,5103.36,1755695754.615976,14:15:54
503130.0,66.0,100.0,99.0,3.0,0.18,-0.04,10.35,-0.03,0.01,0.01,19.09,84.51,-24.41,5103.58,1755695754.6659992,14:15:54
503151.0,66.0,100.0,99.0,3.0,0.17,-0.06,10.32,-0.03,0.01,0.01,19.09,84.52,-24.42,5103.8,1755695754.7189455,14:15:54
503174.0,66.0,100.0,99.0,3.0,0.18,-0.04,10.28,-0.03,0.01,0.0,19.09,84.52,-24.42,5104.04,1755695754.768174,14:15:54
503195.0,66.0,100.0,99.0,3.0,0.16,-0.03,10.3,-0.03,0.01,0.0,19.09,84.52,-24.42,5104.25,1755695754.8196971,14:15:54
503217.0,66.0,100.0,99.0,3.0,0.18,-0.04,10.3,-0.03,0.01,0.0,19.1,84.53,-24.42,5104.48,1755695754.8676772,14:15:54
503238.0,66.0,100.0,99.0,3.0,0.17,-0.06,10.31,-0.03,0.01,0.0,19.12,84.53,-24.42,5104.7,1755695754.9213133,14:15:54
503259.0,66.0,100.0,99.0,3.0,0.16,-0.06,10.32,-0.03,0.01,0.01,19.09,84.54,-24.42,5104.91,1755695754.969266,14:15:54
503281.0,66.0,100.0,99.0,3.0,0.16,-0.04,10.32,-0.03,0.01,0.01,19.1,84.54,-24.42,5105.14,1755695755.017263,14:15:55
503302.0,66.0,100.0,99.0,3.0,0.17,-0.04,10.3,-0.03,0.01,0.01,19.1,84.54,-24.42,5105.36,1755695755.0685532,14:15:55
503324.0,66.0,100.0,99.0,3.0,0.16,-0.03,10.31,-0.03,0.01,0.01,19.09,84.55,-24.42,5105.58,1755695755.1271813,14:15:55
503345.0,66.0,100.0,99.0,3.0,0.18,-0.06,10.32,-0.03,0.01,0.0,19.09,84.55,-24.43,5105.8,1755695755.176973,14:15:55
503366.0,66.0,100.0,99.0,3.0,0.17,-0.04,10.3,-0.02,0.01,0.01,19.08,84.55,-24.43,5106.02,1755695755.234138,14:15:55
503388.0,66.0,100.0,99.0,3.0,0.18,-0.05,10.32,-0.02,0.01,0.0,19.1,84.56,-24.43,5106.25,1755695755.2833543,14:15:55
503409.0,66.0,100.0,99.0,3.0,0.17,-0.05,10.32,-0.03,0.01,0.0,19.09,84.56,-24.43,5106.46,1755695755.3322425,14:15:55
503431.0,66.0,100.0,99.0,3.0,0.17,-0.05,10.3,-0.03,0.01,0.0,19.09,84.56,-24.43,5106.69,1755695755.37936,14:15:55
503452.0,66.0,100.0,99.0,3.0,0.16,-0.05,10.3,-0.02,0.01,0.0,19.1,84.57,-24.43,5106.91,1755695755.4321592,14:15:55
503473.0,66.0,100.0,99.0,3.0,0.17,-0.05,10.33,-0.02,0.01,0.01,19.09,84.57,-24.43,5107.12,1755695755.481817,14:15:55
503494.0,66.0,100.0,99.0,3.0,0.17,-0.05,10.3,-0.02,0.01,0.01,19.09,84.58,-24.43,5107.34,1755695755.5345917,14:15:55
503515.0,66.0,100.0,99.0,3.0,0.18,-0.05,10.34,-0.03,0.01,0.0,19.09,84.58,-24.43,5107.56,1755695755.5853705,14:15:55
503536.0,66.0,100.0,99.0,3.0,0.18,-0.06,10.31,-0.03,0.01,0.0,19.09,84.58,-24.43,5107.77,1755695755.6390786,14:15:55
503558.0,66.0,100.0,99.0,3.0,0.18,-0.06,10.32,-0.03,0.01,0.0,19.08,84.59,-24.44,5108.0,1755695755.693303,14:15:55
503580.0,66.0,100.0,99.0,3.0,0.18,-0.05,10.34,-0.02,0.01,0.0,19.09,84.59,-24.44,5108.23,1755695755.746923,14:15:55
503601.0,66.0,100.0,99.0,3.0,0.17,-0.05,10.33,-0.02,0.01,0.0,19.09,84.59,-24.44,5108.44,1755695755.7975967,14:15:55
503623.0,66.0,100.0,99.0,3.0,0.17,-0.05,10.31,-0.03,0.01,0.0,19.07,84.6,-24.44,5108.67,1755695755.847517,14:15:55
503644.0,66.0,100.0,99.0,3.0,0.16,-0.05,10.29,-0.03,0.01,0.01,19.11,84.6,-24.44,5108.89,1755695755.8970633,14:15:55
503665.0,66.0,100.0,99.0,3.0,0.17,-0.05,10.3,-0.03,0.01,0.0,19.09,84.6,-24.44,5109.1,1755695755.9476933,14:15:55
503687.0,66.0,100.0,99.0,3.0,0.17,-0.05,10.3,-0.03,0.01,0.01,19.1,84.61,-24.44,5109.33,1755695755.9971607,14:15:55
503708.0,66.0,100.0,99.0,3.0,0.14,-0.05,10.31,-0.03,0.01,0.01,19.1,84.61,-24.44,5109.55,1755695756.0517905,14:15:56
503730.0,66.0,100.0,99.0,3.0,0.17,-0.04,10.32,-0.02,0.01,0.0,19.08,84.62,-24.44,5109.77,1755695756.0990555,14:15:56
503751.0,66.0,100.0,99.0,3.0,0.16,-0.03,10.33,-0.03,0.01,0.0,19.08,84.62,-24.45,5109.99,1755695756.150327,14:15:56
503773.0,66.0,100.0,99.0,3.0,0.16,-0.05,10.31,-0.03,0.01,0.0,19.08,84.62,-24.45,5110.22,1755695756.1966069,14:15:56
503794.0,66.0,100.0,99.0,3.0,0.16,-0.05,10.31,-0.03,0.01,0.01,19.09,84.63,-24.45,5110.43,1755695756.2474358,14:15:56
503815.0,66.0,100.0,99.0,3.0,0.16,-0.07,10.3,-0.03,0.01,0.0,19.11,84.63,-24.45,5110.65,1755695756.3737733,14:15:56
503837.0,66.0,100.0,99.0,3.0,0.16,-0.04,10.3,-0.03,0.01,0.01,19.09,84.63,-24.45,5110.88,1755695756.4247735,14:15:56
503858.0,66.0,100.0,99.0,3.0,0.17,-0.05,10.32,-0.03,0.01,0.0,19.09,84.64,-24.45,5111.09,1755695756.4751275,14:15:56
503879.0,66.0,100.0,99.0,3.0,0.17,-0.06,10.31,-0.03,0.01,0.0,19.08,84.64,-24.45,5111.31,1755695756.529602,14:15:56
503901.0,66.0,100.0,99.0,3.0,0.19,-0.06,10.31,-0.03,0.01,0.01,19.09,84.64,-24.45,5111.54,1755695756.597613,14:15:56
503922.0,66.0,100.0,99.0,3.0,0.17,-0.05,10.29,-0.03,0.01,0.0,19.1,84.65,-24.45,5111.75,1755695756.7827444,14:15:56
503944.0,66.0,100.0,99.0,3.0,0.14,-0.06,10.29,-0.02,0.01,0.01,19.09,84.65,-24.46,5111.98,1755695756.8398855,14:15:56
503966.0,66.0,100.0,99.0,3.0,0.17,-0.07,10.35,-0.02,0.01,0.0,19.1,84.65,-24.46,5112.21,1755695756.8970938,14:15:56
503987.0,66.0,100.0,99.0,3.0,0.15,-0.05,10.31,-0.03,0.01,0.0,19.08,84.66,-24.46,5112.42,1755695756.973665,14:15:56
504009.0,66.0,100.0,99.0,3.0,0.2,-0.06,10.32,-0.02,0.01,0.01,19.09,84.66,-24.46,5112.65,1755695757.0208862,14:15:57
504030.0,66.0,100.0,99.0,3.0,0.17,-0.05,10.32,-0.03,0.01,0.01,19.09,84.67,-24.46,5112.87,1755695757.0741515,14:15:57
504052.0,66.0,100.0,99.0,3.0,0.17,-0.05,10.33,-0.02,0.01,0.0,19.09,84.67,-24.46,5113.09,1755695757.1230245,14:15:57
504073.0,66.0,100.0,99.0,3.0,0.18,-0.06,10.31,-0.02,0.01,0.0,19.12,84.67,-24.46,5113.31,1755695757.1741722,14:15:57
504094.0,66.0,100.0,99.0,3.0,0.18,-0.06,10.29,-0.03,0.01,0.01,19.1,84.68,-24.46,5113.53,1755695757.2276852,14:15:57
504116.0,66.0,100.0,99.0,3.0,0.18,-0.04,10.32,-0.03,0.01,0.0,19.1,84.68,-24.47,5113.75,1755695757.2774603,14:15:57
504137.0,66.0,100.0,99.0,3.0,0.18,-0.05,10.32,-0.03,0.01,0.0,19.09,84.68,-24.47,5113.97,1755695757.3250482,14:15:57
504159.0,66.0,100.0,99.0,3.0,0.17,-0.05,10.32,-0.03,0.01,0.0,19.1,84.69,-24.47,5114.2,1755695757.3792055,14:15:57
504180.0,66.0,100.0,99.0,3.0,0.17,-0.06,10.31,-0.03,0.01,0.01,19.11,84.69,-24.47,5114.41,1755695757.4284189,14:15:57
504201.0,66.0,100.0,99.0,3.0,0.16,-0.05,10.31,-0.02,0.01,0.0,19.1,84.69,-24.47,5114.63,1755695757.484402,14:15:57
504223.0,66.0,100.0,99.0,3.0,0.17,-0.06,10.32,-0.03,0.01,0.0,19.1,84.7,-24.47,5114.86,1755695757.5353343,14:15:57
504244.0,66.0,100.0,99.0,3.0,0.18,-0.07,10.34,-0.02,0.01,0.01,19.1,84.7,-24.47,5115.07,1755695757.5906217,14:15:57
504266.0,66.0,100.0,99.0,3.0,0.18,-0.04,10.32,-0.03,0.01,0.0,19.09,84.71,-24.47,5115.3,1755695757.640541,14:15:57
504287.0,66.0,100.0,99.0,3.0,0.18,-0.05,10.3,-0.02,0.01,0.01,19.09,84.71,-24.47,5115.52,1755695757.6886656,14:15:57
504308.0,66.0,100.0,99.0,3.0,0.17,-0.06,10.34,-0.02,0.01,0.01,19.1,84.71,-24.48,5115.73,1755695757.7415438,14:15:57
504330.0,66.0,100.0,99.0,3.0,0.16,-0.06,10.32,-0.03,0.01,0.01,19.1,84.72,-24.48,5115.96,1755695757.8997736,14:15:57
504351.0,66.0,100.0,99.0,3.0,0.16,-0.04,10.3,-0.03,0.01,0.01,19.09,84.72,-24.48,5116.18,1755695757.9494038,14:15:57
504373.0,66.0,100.0,99.0,3.0,0.16,-0.05,10.3,-0.02,0.01,0.01,19.09,84.72,-24.48,5116.4,1755695758.001719,14:15:58
504394.0,66.0,100.0,99.0,3.0,0.16,-0.06,10.3,-0.02,0.01,0.0,19.08,84.73,-24.48,5116.62,1755695758.0650232,14:15:58
504416.0,66.0,100.0,99.0,3.0,0.17,-0.05,10.31,-0.03,0.01,0.01,19.09,84.73,-24.48,5116.85,1755695758.11429,14:15:58
504437.0,66.0,100.0,99.0,3.0,0.19,-0.03,10.31,-0.03,0.01,0.01,19.09,84.73,-24.48,5117.06,1755695758.1641803,14:15:58
504458.0,66.0,100.0,99.0,3.0,0.17,-0.04,10.32,-0.03,0.01,0.0,19.09,84.74,-24.48,5117.28,1755695758.213574,14:15:58
504480.0,66.0,100.0,99.0,3.0,0.18,-0.04,10.31,-0.02,0.01,0.0,19.1,84.74,-24.48,5117.51,1755695758.2626746,14:15:58
504501.0,66.0,100.0,99.0,3.0,0.17,-0.06,10.31,-0.03,0.01,0.01,19.09,84.75,-24.48,5117.72,1755695758.3143835,14:15:58
504523.0,66.0,100.0,99.0,3.0,0.17,-0.05,10.29,-0.03,0.01,0.0,19.1,84.75,-24.49,5117.95,1755695758.3660371,14:15:58
504544.0,66.0,100.0,99.0,3.0,0.16,-0.06,10.29,-0.02,0.01,0.0,19.09,84.75,-24.49,5118.17,1755695758.415488,14:15:58
504566.0,66.0,100.0,99.0,3.0,0.17,-0.05,10.3,-0.03,0.01,0.01,19.1,84.76,-24.49,5118.39,1755695758.4663925,14:15:58
504588.0,66.0,100.0,99.0,3.0,0.17,-0.05,10.32,-0.02,0.01,0.01,19.09,84.76,-24.49,5118.62,1755695758.5165305,14:15:58
504609.0,66.0,100.0,99.0,3.0,0.19,-0.03,10.3,-0.02,0.01,0.0,19.08,84.76,-24.49,5118.84,1755695758.5682201,14:15:58
504631.0,66.0,100.0,99.0,3.0,0.16,-0.04,10.33,-0.02,0.01,0.01,19.11,84.77,-24.49,5119.06,1755695758.6181445,14:15:58
504652.0,66.0,100.0,99.0,3.0,0.17,-0.05,10.32,-0.02,0.01,0.0,19.09,84.77,-24.49,5119.28,1755695758.6701891,14:15:58
504674.0,66.0,100.0,99.0,3.0,0.18,-0.05,10.31,-0.03,0.01,0.01,19.09,84.78,-24.49,5119.51,1755695758.7308524,14:15:58
504736.0,66.0,100.0,99.0,3.0,0.18,-0.05,10.31,-0.03,0.01,0.0,19.09,84.79,-24.5,5120.15,1755695758.839384,14:15:58
504757.0,65.0,100.0,99.0,3.0,0.17,-0.06,10.31,-0.03,0.01,0.01,19.09,84.79,-24.5,5120.36,1755695758.886542,14:15:58
504779.0,65.0,100.0,99.0,3.0,0.18,-0.04,10.29,-0.03,0.01,0.01,19.1,84.79,-24.5,5120.59,1755695758.9478316,14:15:58
504801.0,65.0,100.0,99.0,3.0,0.18,-0.04,10.3,-0.03,0.01,0.01,19.09,84.8,-24.5,5120.82,1755695759.00011,14:15:59
504823.0,65.0,100.0,99.0,3.0,0.17,-0.04,10.3,-0.03,0.01,0.0,19.09,84.8,-24.5,5121.04,1755695759.0509598,14:15:59
504845.0,65.0,100.0,99.0,3.0,0.17,-0.06,10.3,-0.03,0.01,0.0,19.09,84.81,-24.5,5121.27,1755695759.107534,14:15:59
504866.0,65.0,100.0,99.0,3.0,0.19,-0.04,10.33,-0.02,0.01,0.0,19.09,84.81,-24.5,5121.49,1755695759.1587305,14:15:59
504888.0,65.0,100.0,99.0,3.0,0.17,-0.04,10.31,-0.03,0.01,0.01,19.08,84.81,-24.5,5121.71,1755695759.2095468,14:15:59
504909.0,65.0,100.0,99.0,3.0,0.16,-0.06,10.3,-0.03,0.01,0.0,19.09,84.82,-24.5,5121.93,1755695759.2725658,14:15:59
504930.0,65.0,100.0,99.0,3.0,0.17,-0.04,10.32,-0.03,0.01,0.0,19.09,84.82,-24.51,5122.15,1755695759.3353758,14:15:59
504952.0,65.0,100.0,99.0,3.0,0.17,-0.06,10.33,-0.03,0.01,0.0,19.09,84.82,-24.51,5122.37,1755695759.3844326,14:15:59
504973.0,65.0,100.0,99.0,3.0,0.17,-0.06,10.34,-0.02,0.01,0.01,19.12,84.83,-24.51,5122.59,1755695759.4363556,14:15:59
504995.0,65.0,100.0,99.0,3.0,0.17,-0.06,10.31,-0.02,0.01,0.01,19.1,84.83,-24.51,5122.82,1755695759.4837778,14:15:59
505016.0,65.0,100.0,99.0,3.0,0.17,-0.05,10.28,-0.03,0.01,0.01,19.09,84.83,-24.51,5123.03,1755695759.534838,14:15:59
505037.0,65.0,100.0,99.0,3.0,0.17,-0.05,10.28,-0.03,0.01,0.01,19.11,84.84,-24.51,5123.25,1755695759.5863311,14:15:59
505059.0,65.0,100.0,99.0,3.0,0.17,-0.03,10.33,-0.02,0.01,0.0,19.1,84.84,-24.51,5123.48,1755695759.6361048,14:15:59
505080.0,65.0,100.0,99.0,3.0,0.18,-0.04,10.31,-0.03,0.01,0.0,19.09,84.84,-24.51,5123.69,1755695759.6838346,14:15:59
505103.0,65.0,100.0,99.0,3.0,0.18,-0.04,10.28,-0.03,0.01,0.0,19.1,84.85,-24.51,5123.93,1755695759.7377207,14:15:59
505124.0,65.0,100.0,99.0,3.0,0.18,-0.06,10.31,-0.03,0.01,0.01,19.1,84.85,-24.52,5124.15,1755695759.7876358,14:15:59
505146.0,65.0,100.0,99.0,3.0,0.17,-0.05,10.33,-0.03,0.01,0.01,19.11,84.86,-24.52,5124.37,1755695759.8462179,14:15:59
505167.0,65.0,100.0,99.0,3.0,0.18,-0.06,10.33,-0.03,0.01,0.01,19.09,84.86,-24.52,5124.59,1755695759.895868,14:15:59
505189.0,65.0,100.0,99.0,3.0,0.17,-0.04,10.34,-0.03,0.01,0.0,19.1,84.86,-24.52,5124.82,1755695760.061814,14:16:00
505211.0,65.0,100.0,99.0,3.0,0.16,-0.04,10.34,-0.03,0.01,0.01,19.09,84.87,-24.52,5125.05,1755695760.1104143,14:16:00
505232.0,65.0,100.0,99.0,3.0,0.17,-0.05,10.33,-0.02,0.01,0.01,19.11,84.87,-24.52,5125.26,1755695760.165662,14:16:00
505254.0,65.0,100.0,99.0,3.0,0.17,-0.04,10.32,-0.03,0.01,0.01,19.1,84.88,-24.52,5125.49,1755695760.217724,14:16:00
505275.0,65.0,100.0,99.0,3.0,0.15,-0.04,10.29,-0.03,0.01,0.0,19.08,84.88,-24.52,5125.71,1755695760.264304,14:16:00
505297.0,65.0,100.0,99.0,3.0,0.16,-0.05,10.33,-0.03,0.01,0.0,19.09,84.88,-24.52,5125.93,1755695760.3230999,14:16:00
505319.0,65.0,100.0,99.0,3.0,0.14,-0.04,10.35,-0.03,0.01,0.01,19.08,84.89,-24.52,5126.16,1755695760.3772862,14:16:00
505340.0,65.0,100.0,99.0,3.0,0.17,-0.04,10.33,-0.03,0.01,0.01,19.09,84.89,-24.53,5126.38,1755695760.4280145,14:16:00
505362.0,65.0,100.0,99.0,3.0,0.16,-0.03,10.33,-0.03,0.01,0.0,19.09,84.89,-24.53,5126.6,1755695760.4841113,14:16:00
505383.0,65.0,100.0,99.0,3.0,0.18,-0.06,10.32,-0.03,0.01,0.01,19.08,84.9,-24.53,5126.82,1755695760.5358162,14:16:00
505405.0,65.0,100.0,99.0,3.0,0.17,-0.07,10.31,-0.02,0.01,0.01,19.08,84.9,-24.53,5127.05,1755695760.6678326,14:16:00
505426.0,65.0,100.0,99.0,3.0,0.18,-0.07,10.31,-0.03,0.01,0.0,19.09,84.9,-24.53,5127.27,1755695760.7174687,14:16:00
505447.0,65.0,100.0,99.0,3.0,0.18,-0.05,10.3,-0.03,0.01,0.0,19.1,84.91,-24.53,5127.48,1755695760.7654886,14:16:00
505469.0,65.0,100.0,99.0,3.0,0.18,-0.04,10.32,-0.03,0.01,0.0,19.09,84.91,-24.53,5127.71,1755695760.86704,14:16:00
505490.0,65.0,100.0,99.0,3.0,0.16,-0.05,10.33,-0.03,0.01,0.0,19.08,84.91,-24.53,5127.93,1755695760.9182172,14:16:00
505511.0,65.0,100.0,99.0,3.0,0.17,-0.05,10.32,-0.03,0.01,0.0,19.09,84.92,-24.53,5128.14,1755695760.965127,14:16:00
505533.0,65.0,100.0,99.0,3.0,0.18,-0.04,10.33,-0.02,0.01,0.0,19.1,84.92,-24.54,5128.37,1755695761.018581,14:16:01
505554.0,65.0,100.0,99.0,3.0,0.18,-0.04,10.3,-0.02,0.01,0.0,19.1,84.93,-24.54,5128.59,1755695761.0747218,14:16:01
505576.0,65.0,100.0,99.0,3.0,0.18,-0.05,10.34,-0.02,0.01,0.0,19.11,84.93,-24.54,5128.81,1755695761.1250415,14:16:01
505597.0,65.0,100.0,99.0,3.0,0.17,-0.04,10.35,-0.02,0.01,0.0,19.09,84.93,-24.54,5129.03,1755695761.1771777,14:16:01
505618.0,65.0,100.0,99.0,3.0,0.16,-0.06,10.3,-0.03,0.01,0.01,19.11,84.94,-24.54,5129.25,1755695761.252369,14:16:01
505640.0,65.0,100.0,99.0,3.0,0.16,-0.06,10.31,-0.02,0.01,0.01,19.08,84.94,-24.54,5129.47,1755695761.3009014,14:16:01
505661.0,65.0,100.0,99.0,3.0,0.17,-0.05,10.3,-0.03,0.01,0.01,19.1,84.94,-24.54,5129.69,1755695761.3507574,14:16:01
505683.0,65.0,100.0,99.0,3.0,0.17,-0.04,10.31,-0.03,0.01,0.01,19.1,84.95,-24.54,5129.92,1755695761.4036298,14:16:01
505704.0,65.0,100.0,99.0,3.0,0.17,-0.05,10.3,-0.03,0.01,0.01,19.09,84.95,-24.54,5130.13,1755695761.4955587,14:16:01
505726.0,65.0,100.0,99.0,3.0,0.15,-0.05,10.31,-0.03,0.01,0.01,19.09,84.95,-24.54,5130.36,1755695761.547133,14:16:01
505747.0,65.0,100.0,99.0,3.0,0.16,-0.03,10.33,-0.03,0.01,0.0,19.09,84.96,-24.55,5130.58,1755695761.5975437,14:16:01
505768.0,65.0,100.0,99.0,3.0,0.17,-0.06,10.31,-0.03,0.01,0.01,19.09,84.96,-24.55,5130.79,1755695761.6473434,14:16:01
505790.0,65.0,100.0,99.0,3.0,0.16,-0.04,10.31,-0.03,0.01,0.01,19.1,84.96,-24.55,5131.02,1755695761.6959999,14:16:01
505811.0,65.0,100.0,99.0,3.0,0.16,-0.04,10.3,-0.03,0.01,0.0,19.09,84.97,-24.55,5131.24,1755695761.751368,14:16:01
505833.0,65.0,100.0,99.0,3.0,0.17,-0.03,10.3,-0.03,0.01,0.01,19.09,84.97,-24.55,5131.46,1755695761.801515,14:16:01
505854.0,65.0,100.0,99.0,3.0,0.16,-0.04,10.32,-0.03,0.01,0.01,19.09,84.98,-24.55,5131.68,1755695761.8495023,14:16:01
505875.0,65.0,100.0,99.0,3.0,0.17,-0.04,10.29,-0.02,0.01,0.01,19.08,84.98,-24.55,5131.9,1755695761.9020004,14:16:01
505897.0,65.0,100.0,99.0,3.0,0.17,-0.04,10.31,-0.03,0.01,0.01,19.09,84.98,-24.55,5132.12,1755695761.9533892,14:16:01
505918.0,65.0,100.0,99.0,3.0,0.17,-0.04,10.31,-0.03,0.01,0.01,19.09,84.99,-24.55,5132.34,1755695762.008565,14:16:02
505940.0,65.0,100.0,99.0,3.0,0.16,-0.06,10.32,-0.03,0.01,0.01,19.09,84.99,-24.55,5132.57,1755695762.0581365,14:16:02
505961.0,65.0,100.0,99.0,3.0,0.15,-0.05,10.31,-0.03,0.01,0.01,19.09,84.99,-24.55,5132.78,1755695762.1108983,14:16:02
505982.0,65.0,100.0,99.0,3.0,0.18,-0.04,10.3,-0.03,0.01,0.0,19.09,85.0,-24.56,5133.0,1755695762.160388,14:16:02
506004.0,65.0,100.0,99.0,3.0,0.17,-0.03,10.33,-0.03,0.01,0.0,19.09,85.0,-24.56,5133.23,1755695762.212939,14:16:02
506025.0,65.0,100.0,99.0,3.0,0.17,-0.06,10.32,-0.02,0.01,0.0,19.09,85.0,-24.56,5133.44,1755695762.2624607,14:16:02
506047.0,65.0,100.0,99.0,3.0,0.16,-0.06,10.3,-0.02,0.01,0.0,19.1,85.01,-24.56,5133.67,1755695762.3214202,14:16:02
506068.0,65.0,100.0,99.0,3.0,0.15,-0.04,10.31,-0.03,0.01,0.0,19.11,85.01,-24.56,5133.89,1755695762.372931,14:16:02
506090.0,65.0,100.0,99.0,3.0,0.16,-0.05,10.3,-0.03,0.01,0.0,19.11,85.01,-24.56,5134.11,1755695762.4206374,14:16:02
506111.0,65.0,100.0,99.0,3.0,0.17,-0.05,10.3,-0.02,0.01,0.0,19.08,85.02,-24.56,5134.33,1755695762.4762173,14:16:02
506133.0,65.0,100.0,99.0,3.0,0.18,-0.06,10.32,-0.03,0.01,0.0,19.09,85.02,-24.56,5134.56,1755695762.5301788,14:16:02
506154.0,65.0,100.0,99.0,3.0,0.17,-0.04,10.3,-0.03,0.01,0.01,19.09,85.03,-24.56,5134.77,1755695762.580321,14:16:02
506175.0,65.0,100.0,99.0,3.0,0.17,-0.05,10.3,-0.02,0.01,0.0,19.1,85.03,-24.56,5134.99,1755695762.6325557,14:16:02
506197.0,65.0,100.0,99.0,3.0,0.17,-0.05,10.33,-0.03,0.01,0.01,19.09,85.03,-24.57,5135.22,1755695762.6820107,14:16:02
506219.0,65.0,100.0,99.0,3.0,0.2,-0.04,10.29,-0.02,0.01,0.01,19.11,85.04,-24.57,5135.44,1755695762.7372437,14:16:02
506241.0,65.0,100.0,99.0,3.0,0.16,-0.05,10.31,-0.03,0.01,0.0,19.09,85.04,-24.57,5135.67,1755695762.7878776,14:16:02
506262.0,65.0,100.0,99.0,3.0,0.16,-0.07,10.3,-0.03,0.01,0.01,19.09,85.04,-24.57,5135.89,1755695762.8399813,14:16:02
506283.0,65.0,100.0,99.0,3.0,0.17,-0.05,10.32,-0.03,0.01,0.0,19.09,85.05,-24.57,5136.1,1755695762.8951716,14:16:02
506305.0,65.0,100.0,99.0,3.0,0.17,-0.04,10.34,-0.03,0.01,0.01,19.08,85.05,-24.57,5136.33,1755695762.9475923,14:16:02
506326.0,65.0,100.0,99.0,3.0,0.18,-0.03,10.31,-0.03,0.01,0.01,19.1,85.05,-24.57,5136.55,1755695762.997606,14:16:02
506348.0,65.0,100.0,99.0,3.0,0.18,-0.06,10.3,-0.02,0.01,0.0,19.1,85.06,-24.57,5136.77,1755695763.0468762,14:16:03
506369.0,65.0,100.0,99.0,3.0,0.18,-0.06,10.28,-0.03,0.01,0.01,19.11,85.06,-24.57,5136.99,1755695763.1004422,14:16:03
506391.0,65.0,100.0,99.0,3.0,0.16,-0.05,10.32,-0.03,0.01,0.0,19.09,85.07,-24.58,5137.22,1755695763.1549978,14:16:03
506412.0,65.0,100.0,99.0,3.0,0.19,-0.06,10.33,-0.03,0.01,0.01,19.08,85.07,-24.58,5137.43,1755695763.2083173,14:16:03
506433.0,65.0,100.0,99.0,3.0,0.2,-0.04,10.34,-0.02,0.01,0.01,19.1,85.07,-24.58,5137.65,1755695763.273598,14:16:03
506455.0,65.0,100.0,99.0,3.0,0.16,-0.05,10.32,-0.03,0.01,0.01,19.09,85.08,-24.58,5137.88,1755695763.4294581,14:16:03
506476.0,65.0,100.0,99.0,3.0,0.16,-0.05,10.3,-0.02,0.01,0.0,19.1,85.08,-24.58,5138.09,1755695763.478526,14:16:03
506498.0,65.0,100.0,99.0,3.0,0.17,-0.04,10.29,-0.03,0.01,0.0,19.09,85.08,-24.58,5138.32,1755695763.5292354,14:16:03
506520.0,65.0,100.0,99.0,3.0,0.17,-0.05,10.28,-0.02,0.01,0.0,19.08,85.09,-24.58,5138.55,1755695763.579622,14:16:03
506542.0,65.0,100.0,99.0,3.0,0.18,-0.05,10.33,-0.03,0.01,0.01,19.09,85.09,-24.58,5138.77,1755695763.6359787,14:16:03
506563.0,65.0,100.0,99.0,3.0,0.17,-0.06,10.33,-0.02,0.01,0.01,19.1,85.1,-24.58,5138.99,1755695763.6858962,14:16:03
506584.0,65.0,100.0,99.0,3.0,0.18,-0.05,10.29,-0.02,0.01,0.01,19.1,85.1,-24.58,5139.21,1755695763.738604,14:16:03
506606.0,65.0,100.0,99.0,3.0,0.16,-0.03,10.3,-0.03,0.01,0.01,19.09,85.1,-24.59,5139.43,1755695763.840775,14:16:03
506628.0,65.0,100.0,99.0,3.0,0.17,-0.04,10.32,-0.03,0.01,0.01,19.11,85.11,-24.59,5139.66,1755695763.8905196,14:16:03
506650.0,65.0,100.0,99.0,3.0,0.16,-0.05,10.3,-0.03,0.01,0.0,19.12,85.11,-24.59,5139.89,1755695763.9404902,14:16:03
506671.0,65.0,100.0,99.0,3.0,0.17,-0.05,10.31,-0.03,0.01,0.0,19.11,85.11,-24.59,5140.1,1755695763.9910445,14:16:03
506692.0,65.0,100.0,99.0,3.0,0.15,-0.04,10.32,-0.02,0.01,0.01,19.09,85.12,-24.59,5140.32,1755695764.0512795,14:16:04
506714.0,65.0,100.0,99.0,3.0,0.17,-0.07,10.33,-0.03,0.01,0.01,19.1,85.12,-24.59,5140.55,1755695764.144004,14:16:04
506735.0,65.0,100.0,99.0,3.0,0.19,-0.04,10.3,-0.03,0.01,0.01,19.12,85.12,-24.59,5140.76,1755695764.1966116,14:16:04
506757.0,65.0,100.0,99.0,3.0,0.16,-0.05,10.32,-0.03,0.01,0.0,19.12,85.13,-24.59,5140.99,1755695764.2571337,14:16:04
506778.0,65.0,100.0,99.0,3.0,0.18,-0.04,10.32,-0.03,0.01,0.0,19.11,85.13,-24.59,5141.21,1755695764.3079734,14:16:04
506799.0,65.0,100.0,99.0,3.0,0.19,-0.04,10.3,-0.03,0.01,0.0,19.09,85.14,-24.59,5141.42,1755695764.3617334,14:16:04
506821.0,65.0,100.0,99.0,3.0,0.2,-0.04,10.33,-0.03,0.01,0.0,19.09,85.14,-24.6,5141.65,1755695764.4118943,14:16:04
506842.0,65.0,100.0,99.0,3.0,0.17,-0.05,10.3,-0.03,0.01,0.0,19.11,85.14,-24.6,5141.87,1755695764.4628625,14:16:04
506864.0,65.0,100.0,99.0,3.0,0.18,-0.05,10.29,-0.02,0.01,0.0,19.09,85.15,-24.6,5142.09,1755695764.512157,14:16:04
506885.0,65.0,100.0,99.0,3.0,0.17,-0.04,10.32,-0.02,0.01,0.0,19.09,85.15,-24.6,5142.31,1755695764.5634835,14:16:04
506907.0,65.0,100.0,99.0,3.0,0.17,-0.06,10.3,-0.03,0.01,0.01,19.09,85.16,-24.6,5142.54,1755695764.6165664,14:16:04
506929.0,65.0,100.0,99.0,3.0,0.16,-0.06,10.3,-0.03,0.01,0.0,19.11,85.16,-24.6,5142.76,1755695764.6692812,14:16:04
506950.0,65.0,100.0,99.0,3.0,0.16,-0.07,10.31,-0.03,0.01,0.01,19.1,85.16,-24.6,5142.98,1755695764.7250931,14:16:04
506972.0,65.0,100.0,99.0,3.0,0.18,-0.05,10.3,-0.02,0.01,0.0,19.09,85.17,-24.6,5143.21,1755695764.7803469,14:16:04
506993.0,65.0,100.0,99.0,3.0,0.16,-0.07,10.3,-0.02,0.01,0.01,19.11,85.17,-24.6,5143.42,1755695764.82921,14:16:04
507015.0,65.0,100.0,99.0,3.0,0.16,-0.04,10.3,-0.03,0.01,0.0,19.1,85.17,-24.61,5143.65,1755695764.8795443,14:16:04
507036.0,65.0,100.0,99.0,3.0,0.18,-0.08,10.35,-0.02,0.01,0.01,19.09,85.18,-24.61,5143.87,1755695764.929505,14:16:04
507058.0,65.0,100.0,99.0,3.0,0.16,-0.05,10.32,-0.03,0.01,0.01,19.11,85.18,-24.61,5144.09,1755695764.9801598,14:16:04
507079.0,65.0,100.0,99.0,3.0,0.18,-0.03,10.32,-0.03,0.01,0.0,19.1,85.18,-24.61,5144.31,1755695765.033486,14:16:05
507100.0,65.0,100.0,99.0,3.0,0.15,-0.05,10.31,-0.03,0.01,0.0,19.12,85.19,-24.61,5144.53,1755695765.0941324,14:16:05
507122.0,65.0,100.0,99.0,3.0,0.18,-0.06,10.3,-0.02,0.01,0.0,19.1,85.19,-24.61,5144.75,1755695765.1421824,14:16:05
507143.0,65.0,100.0,99.0,3.0,0.16,-0.05,10.32,-0.02,0.01,0.0,19.1,85.19,-24.61,5144.97,1755695765.1920142,14:16:05
507165.0,65.0,100.0,99.0,3.0,0.18,-0.04,10.32,-0.02,0.01,0.01,19.09,85.2,-24.61,5145.2,1755695765.243991,14:16:05
507186.0,65.0,100.0,99.0,3.0,0.17,-0.06,10.32,-0.03,0.01,0.0,19.1,85.2,-24.62,5145.42,1755695765.3072553,14:16:05
507207.0,65.0,100.0,99.0,3.0,0.18,-0.04,10.33,-0.03,0.01,0.0,19.12,85.21,-24.62,5145.63,1755695765.3562407,14:16:05
507229.0,65.0,100.0,99.0,3.0,0.18,-0.04,10.32,-0.02,0.01,0.0,19.1,85.21,-24.62,5145.86,1755695765.409061,14:16:05
507250.0,65.0,100.0,99.0,3.0,0.18,-0.05,10.31,-0.03,0.01,0.0,19.12,85.21,-24.62,5146.08,1755695765.4624712,14:16:05
507272.0,65.0,100.0,99.0,3.0,0.18,-0.04,10.32,-0.03,0.01,0.0,19.09,85.22,-24.62,5146.3,1755695765.511179,14:16:05
507293.0,65.0,100.0,99.0,3.0,0.19,-0.05,10.32,-0.03,0.01,0.01,19.1,85.22,-24.62,5146.52,1755695765.5613508,14:16:05
507315.0,65.0,100.0,99.0,3.0,0.16,-0.06,10.32,-0.03,0.01,0.0,19.1,85.23,-24.62,5146.75,1755695765.6110153,14:16:05
507336.0,65.0,100.0,99.0,3.0,0.17,-0.06,10.29,-0.03,0.01,0.0,19.1,85.23,-24.62,5146.96,1755695765.6628158,14:16:05
507358.0,65.0,100.0,99.0,3.0,0.16,-0.05,10.32,-0.03,0.01,0.0,19.1,85.23,-24.62,5147.19,1755695765.714591,14:16:05
507379.0,65.0,100.0,99.0,3.0,0.17,-0.05,10.32,-0.03,0.01,0.0,19.11,85.24,-24.62,5147.41,1755695765.7654564,14:16:05
507400.0,65.0,100.0,99.0,3.0,0.18,-0.05,10.33,-0.03,0.01,0.0,19.11,85.24,-24.63,5147.62,1755695765.8268557,14:16:05
507422.0,65.0,100.0,99.0,3.0,0.17,-0.05,10.32,-0.03,0.01,0.01,19.1,85.24,-24.63,5147.85,1755695765.8818765,14:16:05
507443.0,65.0,100.0,99.0,3.0,0.16,-0.04,10.3,-0.03,0.01,0.0,19.1,85.25,-24.63,5148.07,1755695765.933506,14:16:05
507465.0,65.0,100.0,99.0,3.0,0.17,-0.05,10.32,-0.02,0.01,0.01,19.11,85.25,-24.63,5148.29,1755695766.0006168,14:16:06
507486.0,65.0,100.0,99.0,3.0,0.19,-0.05,10.32,-0.03,0.01,0.0,19.11,85.25,-24.63,5148.51,1755695766.0955625,14:16:06
507507.0,65.0,100.0,99.0,3.0,0.16,-0.05,10.31,-0.02,0.01,0.01,19.09,85.26,-24.63,5148.73,1755695766.1459064,14:16:06
507529.0,65.0,100.0,99.0,3.0,0.19,-0.06,10.32,-0.03,0.01,0.0,19.12,85.26,-24.63,5148.95,1755695766.1973758,14:16:06
507551.0,65.0,100.0,99.0,3.0,0.16,-0.04,10.31,-0.02,0.01,0.0,19.09,85.27,-24.63,5149.18,1755695766.2502358,14:16:06
507572.0,65.0,100.0,99.0,3.0,0.18,-0.05,10.31,-0.02,0.01,0.01,19.13,85.27,-24.63,5149.4,1755695766.3003786,14:16:06
507594.0,65.0,100.0,99.0,3.0,0.18,-0.04,10.31,-0.03,0.01,0.01,19.12,85.27,-24.64,5149.63,1755695766.351384,14:16:06
507615.0,65.0,100.0,99.0,3.0,0.18,-0.03,10.3,-0.03,0.01,0.0,19.11,85.28,-24.64,5149.84,1755695766.401402,14:16:06
507637.0,65.0,100.0,99.0,3.0,0.17,-0.05,10.32,-0.03,0.01,0.01,19.12,85.28,-24.64,5150.07,1755695766.4664416,14:16:06
507658.0,65.0,100.0,99.0,3.0,0.17,-0.05,10.32,-0.03,0.01,0.0,19.11,85.28,-24.64,5150.29,1755695766.5159323,14:16:06
507679.0,65.0,100.0,99.0,3.0,0.16,-0.04,10.29,-0.03,0.01,0.01,19.11,85.29,-24.64,5150.5,1755695766.5711505,14:16:06
507701.0,65.0,100.0,99.0,3.0,0.18,-0.04,10.31,-0.03,0.01,0.0,19.11,85.29,-24.64,5150.73,1755695766.634616,14:16:06
507722.0,65.0,100.0,99.0,3.0,0.17,-0.06,10.33,-0.03,0.01,0.01,19.11,85.3,-24.64,5150.94,1755695766.6867747,14:16:06
507744.0,65.0,100.0,99.0,3.0,0.17,-0.05,10.32,-0.03,0.01,0.01,19.1,85.3,-24.64,5151.17,1755695766.7399397,14:16:06
507847.0,65.0,100.0,99.0,3.0,0.17,-0.05,10.29,-0.03,0.01,0.01,19.11,85.32,-24.65,5152.23,1755695767.0444188,14:16:07
507869.0,65.0,100.0,99.0,3.0,0.18,-0.05,10.31,-0.02,0.01,0.0,19.09,85.32,-24.65,5152.46,1755695767.1060357,14:16:07
507890.0,65.0,100.0,99.0,3.0,0.17,-0.05,10.32,-0.03,0.01,0.01,19.11,85.32,-24.65,5152.68,1755695767.1641233,14:16:07
507911.0,65.0,100.0,99.0,3.0,0.17,-0.04,10.3,-0.02,0.01,0.0,19.1,85.33,-24.65,5152.89,1755695767.22575,14:16:07
507973.0,65.0,100.0,99.0,3.0,0.18,-0.05,10.32,-0.02,0.01,0.0,19.1,85.34,-24.65,5153.53,1755695767.33239,14:16:07
507994.0,65.0,100.0,99.0,3.0,0.18,-0.04,10.31,-0.02,0.01,0.0,19.11,85.34,-24.65,5153.75,1755695767.3827205,14:16:07
508015.0,65.0,100.0,99.0,3.0,0.18,-0.06,10.3,-0.02,0.01,0.01,19.11,85.35,-24.66,5153.97,1755695767.4316957,14:16:07
508036.0,65.0,100.0,99.0,3.0,0.17,-0.06,10.34,-0.03,0.01,0.01,19.1,85.35,-24.66,5154.18,1755695767.479538,14:16:07
508058.0,65.0,100.0,99.0,3.0,0.16,-0.05,10.31,-0.03,0.01,0.01,19.11,85.35,-24.66,5154.41,1755695767.5332804,14:16:07
508079.0,65.0,100.0,99.0,3.0,0.17,-0.05,10.33,-0.02,0.01,0.01,19.11,85.36,-24.66,5154.63,1755695767.5859616,14:16:07
508100.0,65.0,100.0,99.0,3.0,0.18,-0.05,10.31,-0.03,0.01,0.01,19.1,85.36,-24.66,5154.84,1755695767.6391053,14:16:07
508122.0,65.0,100.0,99.0,3.0,0.17,-0.04,10.31,-0.03,0.01,0.01,19.11,85.36,-24.66,5155.07,1755695767.6894333,14:16:07
508143.0,65.0,100.0,99.0,3.0,0.15,-0.05,10.3,-0.03,0.01,0.0,19.11,85.37,-24.66,5155.29,1755695767.743855,14:16:07
508165.0,65.0,100.0,99.0,3.0,0.19,-0.04,10.33,-0.03,0.01,0.0,19.12,85.37,-24.66,5155.51,1755695767.8054783,14:16:07
508186.0,65.0,100.0,99.0,3.0,0.19,-0.05,10.31,-0.03,0.01,0.0,19.11,85.37,-24.66,5155.73,1755695767.8540635,14:16:07
508207.0,65.0,100.0,99.0,3.0,0.18,-0.05,10.32,-0.02,0.01,0.01,19.1,85.38,-24.66,5155.95,1755695767.9059405,14:16:07
508229.0,65.0,100.0,99.0,3.0,0.19,-0.06,10.3,-0.02,0.01,0.0,19.11,85.38,-24.67,5156.18,1755695767.9547033,14:16:07
508250.0,65.0,100.0,99.0,3.0,0.19,-0.05,10.28,-0.03,0.01,0.01,19.1,85.39,-24.67,5156.39,1755695768.0038905,14:16:08
508272.0,65.0,100.0,99.0,3.0,0.16,-0.06,10.33,-0.03,0.01,0.0,19.12,85.39,-24.67,5156.62,1755695768.0555184,14:16:08
508293.0,65.0,100.0,99.0,3.0,0.16,-0.05,10.33,-0.03,0.01,0.0,19.11,85.39,-24.67,5156.83,1755695768.1049511,14:16:08
508314.0,65.0,100.0,99.0,3.0,0.19,-0.05,10.32,-0.03,0.01,0.0,19.1,85.4,-24.67,5157.05,1755695768.156972,14:16:08
508336.0,65.0,100.0,99.0,3.0,0.18,-0.05,10.31,-0.02,0.01,0.01,19.11,85.4,-24.67,5157.28,1755695768.209262,14:16:08
508357.0,65.0,100.0,99.0,3.0,0.18,-0.05,10.28,-0.03,0.01,0.0,19.11,85.41,-24.67,5157.5,1755695768.2635016,14:16:08
508379.0,65.0,100.0,99.0,3.0,0.18,-0.05,10.3,-0.03,0.01,0.01,19.1,85.41,-24.67,5157.72,1755695768.3246694,14:16:08
508400.0,65.0,100.0,99.0,3.0,0.16,-0.04,10.34,-0.03,0.01,0.01,19.11,85.41,-24.68,5157.94,1755695768.375702,14:16:08
508422.0,65.0,100.0,99.0,3.0,0.15,-0.05,10.31,-0.03,0.01,0.01,19.1,85.42,-24.68,5158.17,1755695768.438858,14:16:08
508443.0,65.0,100.0,99.0,3.0,0.18,-0.05,10.31,-0.02,0.01,0.0,19.1,85.42,-24.68,5158.38,1755695768.4977481,14:16:08
508465.0,65.0,100.0,99.0,3.0,0.17,-0.05,10.3,-0.03,0.01,0.0,19.12,85.42,-24.68,5158.61,1755695768.5472279,14:16:08
508487.0,65.0,100.0,99.0,3.0,0.18,-0.04,10.31,-0.03,0.01,0.0,19.1,85.43,-24.68,5158.83,1755695768.5972068,14:16:08
508508.0,65.0,100.0,99.0,3.0,0.18,-0.04,10.31,-0.03,0.01,0.01,19.1,85.43,-24.68,5159.05,1755695768.6507003,14:16:08
508530.0,65.0,100.0,99.0,3.0,0.16,-0.05,10.33,-0.03,0.01,0.01,19.1,85.43,-24.68,5159.28,1755695768.6992586,14:16:08
508551.0,65.0,100.0,99.0,3.0,0.17,-0.04,10.35,-0.03,0.01,0.0,19.09,85.44,-24.68,5159.5,1755695768.7489314,14:16:08
508572.0,65.0,100.0,99.0,3.0,0.19,-0.04,10.33,-0.03,0.01,0.0,19.11,85.44,-24.68,5159.71,1755695768.80294,14:16:08
508594.0,65.0,100.0,99.0,3.0,0.18,-0.05,10.3,-0.03,0.01,0.0,19.12,85.45,-24.68,5159.94,1755695768.8644006,14:16:08
508615.0,65.0,100.0,99.0,3.0,0.17,-0.06,10.31,-0.02,0.01,0.01,19.11,85.45,-24.68,5160.16,1755695768.9154475,14:16:08
508637.0,65.0,100.0,99.0,3.0,0.18,-0.07,10.31,-0.03,0.01,0.01,19.12,85.45,-24.69,5160.38,1755695768.965749,14:16:08
508658.0,65.0,100.0,99.0,3.0,0.18,-0.07,10.3,-0.03,0.01,0.0,19.09,85.46,-24.69,5160.6,1755695769.0155423,14:16:09
508680.0,65.0,100.0,99.0,3.0,0.19,-0.05,10.28,-0.02,0.01,0.0,19.12,85.46,-24.69,5160.83,1755695769.0629094,14:16:09
508701.0,65.0,100.0,99.0,3.0,0.17,-0.05,10.31,-0.02,0.01,0.0,19.1,85.47,-24.69,5161.04,1755695769.1202233,14:16:09
508722.0,65.0,100.0,99.0,3.0,0.16,-0.05,10.29,-0.03,0.01,0.0,19.12,85.47,-24.69,5161.26,1755695769.1792307,14:16:09
508744.0,65.0,100.0,99.0,3.0,0.2,-0.05,10.32,-0.03,0.01,0.01,19.1,85.47,-24.69,5161.48,1755695769.2314417,14:16:09
508765.0,65.0,100.0,99.0,3.0,0.17,-0.03,10.36,-0.03,0.01,0.0,19.11,85.48,-24.69,5161.7,1755695769.2796137,14:16:09
508787.0,65.0,100.0,99.0,3.0,0.16,-0.05,10.32,-0.03,0.01,0.01,19.1,85.48,-24.69,5161.93,1755695769.3314073,14:16:09
508808.0,65.0,100.0,99.0,3.0,0.17,-0.05,10.3,-0.03,0.01,0.0,19.1,85.48,-24.69,5162.15,1755695769.38059,14:16:09
508829.0,65.0,100.0,99.0,3.0,0.18,-0.05,10.33,-0.03,0.01,0.0,19.12,85.49,-24.7,5162.36,1755695769.4312665,14:16:09
508851.0,65.0,100.0,99.0,3.0,0.16,-0.05,10.31,-0.02,0.01,0.01,19.11,85.49,-24.7,5162.59,1755695769.4846284,14:16:09
508872.0,65.0,100.0,99.0,3.0,0.18,-0.05,10.33,-0.03,0.01,0.0,19.12,85.49,-24.7,5162.81,1755695769.5331821,14:16:09
508894.0,65.0,100.0,99.0,3.0,0.16,-0.05,10.33,-0.03,0.01,0.01,19.11,85.5,-24.7,5163.03,1755695769.5812602,14:16:09
508915.0,65.0,100.0,99.0,3.0,0.16,-0.05,10.32,-0.02,0.01,0.0,19.1,85.5,-24.7,5163.25,1755695769.6430345,14:16:09
508936.0,65.0,100.0,99.0,3.0,0.14,-0.05,10.32,-0.02,0.01,0.0,19.1,85.5,-24.7,5163.47,1755695769.693451,14:16:09
508958.0,65.0,100.0,99.0,3.0,0.17,-0.06,10.31,-0.02,0.01,0.0,19.1,85.51,-24.7,5163.69,1755695769.747654,14:16:09
508979.0,65.0,100.0,99.0,3.0,0.18,-0.02,10.3,-0.03,0.01,0.0,19.1,85.51,-24.7,5163.91,1755695769.7962437,14:16:09
509001.0,65.0,100.0,99.0,3.0,0.16,-0.05,10.3,-0.03,0.01,0.0,19.09,85.52,-24.7,5164.14,1755695769.8589394,14:16:09
509022.0,65.0,100.0,99.0,3.0,0.15,-0.05,10.32,-0.03,0.01,0.0,19.1,85.52,-24.71,5164.35,1755695769.9121962,14:16:09
509044.0,65.0,100.0,99.0,3.0,0.16,-0.05,10.31,-0.02,0.01,0.01,19.1,85.52,-24.71,5164.58,1755695769.9635584,14:16:09
509065.0,65.0,100.0,99.0,3.0,0.17,-0.07,10.33,-0.03,0.01,0.0,19.11,85.53,-24.71,5164.8,1755695770.097967,14:16:10
509087.0,65.0,100.0,99.0,3.0,0.17,-0.06,10.34,-0.03,0.01,0.01,19.1,85.53,-24.71,5165.03,1755695770.1856394,14:16:10
509109.0,65.0,100.0,99.0,3.0,0.19,-0.05,10.31,-0.02,0.01,0.01,19.11,85.53,-24.71,5165.25,1755695770.2363777,14:16:10
509130.0,65.0,100.0,99.0,3.0,0.19,-0.05,10.32,-0.03,0.01,0.01,19.09,85.54,-24.71,5165.47,1755695770.2878542,14:16:10
509152.0,65.0,100.0,99.0,3.0,0.15,-0.07,10.32,-0.03,0.01,0.01,19.11,85.54,-24.71,5165.7,1755695770.3895822,14:16:10
509173.0,65.0,100.0,99.0,3.0,0.17,-0.04,10.31,-0.03,0.01,0.01,19.09,85.54,-24.71,5165.91,1755695770.4418678,14:16:10
509195.0,65.0,100.0,99.0,3.0,0.16,-0.06,10.32,-0.03,0.01,0.01,19.12,85.55,-24.71,5166.14,1755695770.4947643,14:16:10
509216.0,65.0,100.0,99.0,3.0,0.17,-0.04,10.31,-0.02,0.01,0.0,19.11,85.55,-24.72,5166.36,1755695770.5446632,14:16:10
509237.0,65.0,100.0,99.0,3.0,0.15,-0.05,10.31,-0.03,0.01,0.01,19.09,85.55,-24.72,5166.57,1755695770.5990796,14:16:10
509259.0,65.0,100.0,99.0,3.0,0.17,-0.04,10.34,-0.03,0.01,0.01,19.1,85.56,-24.72,5166.8,1755695770.651864,14:16:10
509280.0,65.0,100.0,99.0,3.0,0.17,-0.02,10.32,-0.02,0.01,0.0,19.12,85.56,-24.72,5167.02,1755695770.7079365,14:16:10
509302.0,65.0,100.0,99.0,3.0,0.18,-0.06,10.3,-0.03,0.01,0.01,19.1,85.57,-24.72,5167.24,1755695770.7555828,14:16:10
509323.0,65.0,100.0,99.0,3.0,0.18,-0.05,10.32,-0.03,0.01,0.01,19.1,85.57,-24.72,5167.46,1755695770.8065917,14:16:10
509344.0,65.0,100.0,99.0,3.0,0.16,-0.04,10.33,-0.03,0.01,0.01,19.12,85.57,-24.72,5167.68,1755695770.8591142,14:16:10
