timestamp_ms,ECG_Raw,ECG_Centered,ECG_LO_P,ECG_LO_N,PPG_HR,PPG_O2,PPG_Conf,PPG_Status,MPU_AccelX,MPU_AccelY,MPU_AccelZ,MPU_GyroX,MPU_GyroY,MPU_GyroZ,MPU_Temp,MPU_VelX,MPU_VelY,MPU_VelZ,t_s,ECG_HR_at_sample
6499.0,455.0,-1351.0,0.0,0.0,0.0,0.0,0.0,0.0,0.24,-0.05,10.3,-0.03,0.01,0.0,26.33,0.0,-0.0,0.05,6.499,71.42857142857152
6539.0,1930.0,124.0,0.0,0.0,0.0,0.0,0.0,1.0,0.24,-0.05,10.31,-0.03,0.01,0.0,26.32,0.01,-0.0,0.46,6.539,71.42857142857152
6559.0,1896.0,90.0,0.0,0.0,0.0,0.0,0.0,1.0,0.24,-0.06,10.33,-0.03,0.01,0.0,26.33,0.02,-0.0,0.67,6.559,71.42857142857152
6580.0,1933.0,127.0,0.0,0.0,0.0,0.0,0.0,1.0,0.23,-0.06,10.34,-0.03,0.01,0.0,26.31,0.02,-0.0,0.89,6.58,71.42857142857152
6601.0,2923.0,1117.0,0.0,0.0,0.0,0.0,0.0,1.0,0.23,-0.06,10.33,-0.03,0.01,0.0,26.32,0.03,-0.01,1.1,6.601,71.42857142857152
6622.0,1773.0,-33.0,0.0,0.0,0.0,0.0,0.0,1.0,0.23,-0.07,10.35,-0.03,0.01,0.0,26.32,0.03,-0.01,1.32,6.622,71.42857142857152
6643.0,1946.0,140.0,0.0,0.0,0.0,0.0,0.0,1.0,0.24,-0.08,10.33,-0.03,0.01,0.0,26.32,0.04,-0.01,1.54,6.643,71.42857142857152
6664.0,1727.0,-79.0,0.0,0.0,0.0,0.0,0.0,1.0,0.22,-0.07,10.34,-0.03,0.01,0.0,26.32,0.04,-0.01,1.76,6.664,71.42857142857152
6685.0,1916.0,110.0,0.0,0.0,0.0,0.0,0.0,1.0,0.23,-0.06,10.33,-0.03,0.01,0.0,26.33,0.05,-0.01,1.97,6.685,71.42857142857152
6706.0,2236.0,430.0,0.0,0.0,0.0,0.0,0.0,1.0,0.26,-0.06,10.34,-0.03,0.01,0.0,26.32,0.05,-0.01,2.19,6.706,71.42857142857152
6727.0,1840.0,34.0,0.0,0.0,0.0,0.0,0.0,1.0,0.23,-0.06,10.33,-0.03,0.01,0.0,26.33,0.06,-0.01,2.41,6.727,71.42857142857152
6748.0,1251.0,-555.0,0.0,0.0,0.0,0.0,0.0,1.0,0.24,-0.08,10.31,-0.03,0.01,0.01,26.32,0.06,-0.02,2.62,6.748,71.42857142857152
6769.0,2231.0,425.0,0.0,0.0,0.0,0.0,0.0,1.0,0.23,-0.07,10.34,-0.03,0.01,0.0,26.31,0.07,-0.02,2.84,6.769,71.42857142857152
6790.0,1405.0,-401.0,0.0,0.0,0.0,0.0,0.0,1.0,0.24,-0.06,10.35,-0.03,0.01,0.01,26.32,0.07,-0.02,3.06,6.79,71.42857142857152
6811.0,1919.0,113.0,0.0,0.0,0.0,0.0,0.0,1.0,0.24,-0.05,10.31,-0.03,0.01,0.0,26.32,0.08,-0.02,3.27,6.811,71.42857142857152
6832.0,1023.0,-783.0,0.0,0.0,0.0,0.0,0.0,1.0,0.24,-0.06,10.33,-0.03,0.01,0.0,26.33,0.08,-0.02,3.49,6.832,71.42857142857152
6853.0,2128.0,322.0,0.0,0.0,0.0,0.0,0.0,1.0,0.24,-0.06,10.31,-0.03,0.01,0.0,26.32,0.09,-0.02,3.71,6.853,71.42857142857152
6874.0,1793.0,-13.0,0.0,0.0,0.0,0.0,0.0,1.0,0.24,-0.08,10.32,-0.03,0.01,0.0,26.3,0.09,-0.02,3.92,6.874,71.42857142857152
6895.0,2027.0,221.0,0.0,0.0,0.0,0.0,0.0,1.0,0.23,-0.06,10.35,-0.03,0.01,0.0,26.33,0.1,-0.03,4.14,6.895,71.42857142857152
6916.0,1774.0,-32.0,0.0,0.0,0.0,0.0,0.0,1.0,0.25,-0.07,10.33,-0.03,0.01,0.0,26.32,0.1,-0.03,4.36,6.916,71.42857142857152
6937.0,1847.0,41.0,0.0,0.0,0.0,0.0,0.0,1.0,0.23,-0.07,10.33,-0.03,0.01,0.0,26.31,0.11,-0.03,4.58,6.937,71.42857142857152
6958.0,1936.0,130.0,0.0,0.0,0.0,0.0,0.0,1.0,0.24,-0.06,10.33,-0.03,0.01,0.0,26.32,0.11,-0.03,4.79,6.958,71.42857142857152
6979.0,3472.0,1666.0,0.0,0.0,0.0,0.0,0.0,1.0,0.24,-0.07,10.32,-0.03,0.01,0.0,26.3,0.12,-0.03,5.01,6.979,71.42857142857152
7000.0,1301.0,-505.0,0.0,0.0,0.0,0.0,0.0,1.0,0.24,-0.05,10.35,-0.03,0.01,0.01,26.33,0.12,-0.03,5.23,7.0,71.42857142857152
7021.0,1815.0,9.0,0.0,0.0,0.0,0.0,0.0,1.0,0.24,-0.04,10.35,-0.03,0.01,0.0,26.32,0.13,-0.03,5.44,7.021,71.42857142857152
7042.0,1847.0,41.0,0.0,0.0,0.0,0.0,0.0,1.0,0.23,-0.06,10.33,-0.03,0.01,0.0,26.33,0.13,-0.03,5.66,7.042,71.42857142857152
7063.0,1693.0,-113.0,0.0,0.0,0.0,0.0,0.0,1.0,0.23,-0.03,10.32,-0.03,0.01,0.01,26.32,0.14,-0.03,5.88,7.063,71.42857142857152
7084.0,1579.0,-227.0,0.0,0.0,0.0,0.0,0.0,1.0,0.23,-0.08,10.32,-0.03,0.01,0.0,26.32,0.14,-0.04,6.09,7.084,71.42857142857152
7105.0,2764.0,958.0,0.0,0.0,0.0,0.0,0.0,1.0,0.23,-0.06,10.32,-0.03,0.01,0.01,26.33,0.15,-0.04,6.31,7.105,71.42857142857152
7126.0,2115.0,309.0,0.0,0.0,0.0,0.0,0.0,1.0,0.22,-0.07,10.33,-0.03,0.01,0.0,26.32,0.15,-0.04,6.53,7.126,71.42857142857152
7147.0,1758.0,-48.0,0.0,0.0,0.0,0.0,0.0,1.0,0.25,-0.07,10.33,-0.03,0.01,0.0,26.32,0.16,-0.04,6.75,7.147,71.42857142857152
7168.0,558.0,-1248.0,0.0,0.0,0.0,0.0,0.0,1.0,0.23,-0.06,10.33,-0.03,0.01,0.01,26.3,0.16,-0.04,6.96,7.168,71.42857142857152
7189.0,2095.0,289.0,0.0,0.0,0.0,0.0,0.0,1.0,0.24,-0.06,10.35,-0.03,0.01,0.0,26.32,0.17,-0.04,7.18,7.189,71.42857142857152
7210.0,2330.0,524.0,0.0,0.0,0.0,0.0,0.0,1.0,0.23,-0.06,10.31,-0.03,0.01,0.01,26.31,0.17,-0.04,7.4,7.21,71.42857142857152
7231.0,2189.0,383.0,0.0,0.0,0.0,0.0,0.0,1.0,0.24,-0.07,10.33,-0.03,0.01,0.0,26.32,0.18,-0.05,7.61,7.231,71.42857142857152
7252.0,1871.0,65.0,0.0,0.0,0.0,0.0,0.0,1.0,0.23,-0.06,10.35,-0.03,0.01,0.0,26.31,0.18,-0.05,7.83,7.252,71.42857142857152
7273.0,2093.0,287.0,0.0,0.0,0.0,0.0,0.0,1.0,0.24,-0.07,10.38,-0.03,0.01,0.0,26.31,0.19,-0.05,8.05,7.273,71.42857142857152
7294.0,1851.0,45.0,0.0,0.0,0.0,0.0,0.0,1.0,0.23,-0.05,10.34,-0.03,0.01,0.01,26.32,0.19,-0.05,8.27,7.294,71.42857142857152
7315.0,1939.0,133.0,0.0,0.0,0.0,0.0,0.0,1.0,0.25,-0.08,10.32,-0.03,0.01,0.0,26.33,0.2,-0.05,8.48,7.315,71.42857142857152
7336.0,1925.0,119.0,0.0,0.0,0.0,0.0,0.0,1.0,0.23,-0.07,10.34,-0.03,0.01,0.0,26.32,0.2,-0.05,8.7,7.336,71.42857142857152
7357.0,1922.0,116.0,0.0,0.0,0.0,0.0,0.0,1.0,0.24,-0.05,10.34,-0.03,0.01,0.0,26.34,0.21,-0.05,8.92,7.357,71.42857142857152
7378.0,1792.0,-14.0,0.0,0.0,0.0,0.0,0.0,1.0,0.24,-0.07,10.33,-0.03,0.01,0.0,26.33,0.21,-0.05,9.13,7.378,71.42857142857152
7399.0,1776.0,-30.0,0.0,0.0,0.0,0.0,0.0,1.0,0.23,-0.06,10.32,-0.03,0.01,0.01,26.33,0.22,-0.06,9.35,7.399,71.42857142857152
7420.0,2029.0,223.0,0.0,0.0,0.0,0.0,0.0,1.0,0.24,-0.05,10.36,-0.03,0.01,0.0,26.33,0.22,-0.06,9.57,7.42,71.42857142857152
7441.0,1627.0,-179.0,0.0,0.0,0.0,0.0,0.0,1.0,0.22,-0.07,10.34,-0.03,0.01,0.0,26.32,0.23,-0.06,9.78,7.441,71.42857142857152
7462.0,2383.0,577.0,0.0,0.0,0.0,0.0,0.0,1.0,0.23,-0.07,10.35,-0.03,0.01,0.01,26.32,0.23,-0.06,10.0,7.462,71.42857142857152
7483.0,2032.0,226.0,0.0,0.0,0.0,0.0,0.0,1.0,0.25,-0.07,10.34,-0.03,0.01,0.0,26.32,0.23,-0.06,10.22,7.483,71.42857142857152
7504.0,1905.0,99.0,0.0,0.0,0.0,0.0,0.0,1.0,0.23,-0.04,10.34,-0.03,0.01,0.0,26.31,0.24,-0.06,10.44,7.504,71.42857142857152
7525.0,1926.0,120.0,0.0,0.0,0.0,0.0,0.0,1.0,0.25,-0.06,10.32,-0.03,0.01,0.0,26.33,0.24,-0.06,10.65,7.525,71.42857142857152
7546.0,2091.0,285.0,0.0,0.0,0.0,0.0,0.0,1.0,0.24,-0.07,10.32,-0.03,0.01,0.0,26.32,0.25,-0.07,10.87,7.546,71.42857142857152
7567.0,2147.0,341.0,0.0,0.0,0.0,0.0,0.0,1.0,0.25,-0.08,10.32,-0.03,0.01,0.0,26.31,0.26,-0.07,11.09,7.567,71.42857142857152
7588.0,2145.0,339.0,0.0,0.0,0.0,0.0,0.0,1.0,0.25,-0.06,10.33,-0.03,0.01,0.0,26.32,0.26,-0.07,11.3,7.588,71.42857142857152
7609.0,1975.0,169.0,0.0,0.0,0.0,0.0,0.0,1.0,0.24,-0.07,10.31,-0.03,0.01,0.0,26.3,0.27,-0.07,11.52,7.609,71.42857142857152
7630.0,2213.0,407.0,0.0,0.0,0.0,0.0,0.0,1.0,0.25,-0.05,10.34,-0.03,0.01,0.01,26.33,0.27,-0.07,11.74,7.63,71.42857142857152
7651.0,1937.0,131.0,0.0,0.0,0.0,0.0,0.0,1.0,0.25,-0.08,10.34,-0.03,0.01,0.0,26.32,0.28,-0.07,11.95,7.651,71.42857142857152
7672.0,467.0,-1339.0,0.0,0.0,0.0,0.0,0.0,1.0,0.23,-0.05,10.31,-0.03,0.01,0.0,26.33,0.28,-0.07,12.17,7.672,71.42857142857152
7693.0,1665.0,-141.0,0.0,0.0,0.0,0.0,0.0,1.0,0.24,-0.06,10.32,-0.03,0.01,0.0,26.32,0.29,-0.07,12.39,7.693,71.42857142857152
7714.0,1746.0,-60.0,0.0,0.0,0.0,0.0,0.0,1.0,0.25,-0.08,10.33,-0.03,0.01,0.0,26.31,0.29,-0.08,12.6,7.714,71.42857142857152
7735.0,1013.0,-793.0,0.0,0.0,0.0,0.0,0.0,1.0,0.25,-0.05,10.3,-0.03,0.01,0.0,26.33,0.3,-0.08,12.82,7.735,71.42857142857152
7756.0,2404.0,598.0,0.0,0.0,0.0,0.0,0.0,1.0,0.25,-0.08,10.3,-0.03,0.01,0.0,26.32,0.3,-0.08,13.04,7.756,71.42857142857152
7777.0,2405.0,599.0,0.0,0.0,0.0,0.0,0.0,1.0,0.25,-0.05,10.32,-0.03,0.01,0.0,26.32,0.31,-0.08,13.25,7.777,71.42857142857152
7798.0,1521.0,-285.0,0.0,0.0,0.0,0.0,0.0,1.0,0.25,-0.08,10.32,-0.03,0.01,0.01,26.34,0.31,-0.08,13.47,7.798,71.42857142857152
7819.0,2453.0,647.0,0.0,0.0,0.0,0.0,0.0,1.0,0.25,-0.08,10.32,-0.03,0.01,0.0,26.33,0.32,-0.08,13.69,7.819,71.42857142857152
7840.0,1709.0,-97.0,0.0,0.0,0.0,0.0,0.0,1.0,0.24,-0.06,10.3,-0.03,0.01,0.0,26.33,0.32,-0.08,13.9,7.84,71.42857142857152
7861.0,2031.0,225.0,0.0,0.0,0.0,0.0,0.0,1.0,0.25,-0.06,10.35,-0.03,0.01,0.0,26.31,0.33,-0.09,14.12,7.861,71.42857142857152
7882.0,1874.0,68.0,0.0,0.0,0.0,0.0,0.0,1.0,0.24,-0.05,10.33,-0.03,0.01,0.0,26.33,0.33,-0.09,14.34,7.882,71.42857142857152
7903.0,1903.0,97.0,0.0,0.0,0.0,0.0,0.0,1.0,0.24,-0.08,10.33,-0.03,0.01,0.0,26.3,0.34,-0.09,14.56,7.903,71.42857142857152
7924.0,1854.0,48.0,0.0,0.0,0.0,0.0,0.0,1.0,0.24,-0.08,10.34,-0.03,0.01,0.0,26.32,0.34,-0.09,14.77,7.924,71.42857142857152
7945.0,1863.0,57.0,0.0,0.0,0.0,0.0,0.0,1.0,0.24,-0.07,10.33,-0.03,0.01,0.0,26.33,0.35,-0.09,14.99,7.945,71.42857142857152
7966.0,1904.0,98.0,0.0,0.0,0.0,0.0,0.0,1.0,0.26,-0.05,10.32,-0.03,0.01,0.0,26.32,0.35,-0.09,15.21,7.966,71.42857142857152
7987.0,1955.0,149.0,0.0,0.0,0.0,0.0,0.0,1.0,0.26,-0.06,10.35,-0.03,0.01,0.0,26.32,0.36,-0.09,15.42,7.987,71.42857142857152
8008.0,0.0,-1806.0,0.0,0.0,0.0,0.0,0.0,1.0,0.22,-0.08,10.33,-0.03,0.01,0.0,26.32,0.36,-0.1,15.64,8.008,71.42857142857152
8029.0,0.0,-1806.0,0.0,0.0,0.0,0.0,0.0,1.0,0.25,-0.08,10.34,-0.03,0.01,0.01,26.32,0.37,-0.1,15.86,8.029,71.42857142857152
8050.0,1971.0,165.0,0.0,0.0,0.0,0.0,0.0,1.0,0.23,-0.08,10.32,-0.03,0.01,0.0,26.3,0.37,-0.1,16.07,8.05,71.42857142857152
8071.0,1922.0,116.0,0.0,0.0,0.0,0.0,0.0,1.0,0.25,-0.07,10.31,-0.03,0.01,0.0,26.33,0.38,-0.1,16.29,8.071,71.42857142857152
8092.0,1931.0,125.0,0.0,0.0,0.0,0.0,0.0,1.0,0.25,-0.06,10.31,-0.03,0.01,0.0,26.31,0.38,-0.1,16.51,8.092,71.42857142857152
8113.0,1934.0,128.0,0.0,0.0,0.0,0.0,0.0,1.0,0.23,-0.05,10.3,-0.03,0.01,0.0,26.31,0.39,-0.1,16.72,8.113,71.42857142857152
8134.0,1947.0,141.0,0.0,0.0,0.0,0.0,0.0,1.0,0.25,-0.05,10.33,-0.03,0.01,0.0,26.31,0.39,-0.1,16.94,8.134,71.42857142857152
8155.0,1889.0,83.0,0.0,0.0,0.0,0.0,0.0,1.0,0.25,-0.08,10.31,-0.03,0.01,0.0,26.31,0.4,-0.11,17.16,8.155,71.42857142857152
8176.0,1909.0,103.0,0.0,0.0,0.0,0.0,0.0,1.0,0.24,-0.07,10.31,-0.03,0.01,0.0,26.32,0.41,-0.11,17.37,8.176,71.42857142857152
8197.0,134.0,-1672.0,0.0,0.0,0.0,0.0,0.0,1.0,0.24,-0.06,10.31,-0.03,0.01,0.0,26.32,0.41,-0.11,17.59,8.197,71.42857142857152
8218.0,4095.0,2289.0,0.0,0.0,0.0,0.0,0.0,1.0,0.23,-0.05,10.32,-0.03,0.01,0.0,26.31,0.42,-0.11,17.81,8.218,71.42857142857152
8239.0,4095.0,2289.0,0.0,0.0,0.0,0.0,0.0,1.0,0.23,-0.06,10.34,-0.03,0.01,0.0,26.32,0.42,-0.11,18.02,8.239,129.87012987012943
8260.0,4095.0,2289.0,0.0,0.0,0.0,0.0,0.0,1.0,0.24,-0.06,10.33,-0.03,0.01,0.0,26.32,0.42,-0.11,18.24,8.26,129.87012987012943
8281.0,4095.0,2289.0,0.0,0.0,0.0,0.0,0.0,1.0,0.23,-0.05,10.31,-0.03,0.01,0.0,26.31,0.43,-0.11,18.46,8.281,129.87012987012943
8302.0,1670.0,-136.0,0.0,0.0,0.0,0.0,0.0,1.0,0.24,-0.08,10.34,-0.03,0.01,0.0,26.31,0.43,-0.11,18.67,8.302,129.87012987012943
8323.0,1937.0,131.0,0.0,0.0,0.0,0.0,0.0,1.0,0.23,-0.07,10.33,-0.03,0.01,0.0,26.33,0.44,-0.12,18.89,8.323,129.87012987012943
8344.0,1779.0,-27.0,0.0,0.0,0.0,0.0,0.0,1.0,0.24,-0.06,10.32,-0.03,0.01,0.01,26.32,0.44,-0.12,19.11,8.344,129.87012987012943
8365.0,1943.0,137.0,0.0,0.0,0.0,0.0,0.0,1.0,0.24,-0.05,10.34,-0.03,0.01,0.0,26.3,0.45,-0.12,19.33,8.365,129.87012987012943
8386.0,1930.0,124.0,0.0,0.0,0.0,0.0,0.0,1.0,0.24,-0.04,10.35,-0.03,0.01,0.0,26.33,0.45,-0.12,19.54,8.386,129.87012987012943
8407.0,1983.0,177.0,0.0,0.0,0.0,0.0,0.0,1.0,0.25,-0.05,10.34,-0.03,0.01,0.01,26.32,0.46,-0.12,19.76,8.407,129.87012987012943
8428.0,0.0,-1806.0,0.0,0.0,0.0,0.0,0.0,1.0,0.23,-0.06,10.34,-0.03,0.01,0.0,26.3,0.47,-0.12,19.98,8.428,129.87012987012943
8449.0,4095.0,2289.0,0.0,0.0,0.0,0.0,0.0,1.0,0.23,-0.06,10.3,-0.03,0.01,0.0,26.31,0.47,-0.12,20.19,8.449,129.87012987012943
8470.0,4095.0,2289.0,0.0,0.0,0.0,0.0,0.0,1.0,0.24,-0.05,10.32,-0.03,0.01,0.01,26.33,0.47,-0.12,20.41,8.47,129.87012987012943
8491.0,2541.0,735.0,0.0,0.0,0.0,0.0,0.0,1.0,0.23,-0.07,10.33,-0.03,0.01,0.0,26.33,0.48,-0.13,20.63,8.491,129.87012987012943
8512.0,1762.0,-44.0,0.0,0.0,0.0,0.0,0.0,1.0,0.24,-0.06,10.34,-0.03,0.01,0.0,26.33,0.48,-0.13,20.84,8.512,129.87012987012943
8533.0,1817.0,11.0,0.0,0.0,0.0,0.0,0.0,1.0,0.23,-0.06,10.33,-0.03,0.01,0.0,26.31,0.49,-0.13,21.06,8.533,129.87012987012943
8554.0,2363.0,557.0,0.0,0.0,0.0,0.0,0.0,1.0,0.25,-0.05,10.28,-0.03,0.01,0.0,26.32,0.49,-0.13,21.28,8.554,129.87012987012943
8575.0,1844.0,38.0,0.0,0.0,0.0,0.0,0.0,1.0,0.25,-0.07,10.32,-0.03,0.01,0.0,26.34,0.5,-0.13,21.49,8.575,129.87012987012943
8596.0,1904.0,98.0,0.0,0.0,0.0,0.0,0.0,1.0,0.23,-0.07,10.33,-0.03,0.01,0.01,26.34,0.51,-0.13,21.71,8.596,129.87012987012943
8617.0,2218.0,412.0,0.0,0.0,0.0,0.0,0.0,1.0,0.24,-0.06,10.32,-0.03,0.01,0.0,26.34,0.51,-0.13,21.93,8.617,129.87012987012943
8638.0,1859.0,53.0,0.0,0.0,0.0,0.0,0.0,1.0,0.24,-0.04,10.33,-0.03,0.01,0.0,26.34,0.52,-0.13,22.14,8.638,129.87012987012943
8659.0,1876.0,70.0,0.0,0.0,0.0,0.0,0.0,1.0,0.23,-0.07,10.33,-0.03,0.01,0.0,26.34,0.52,-0.14,22.36,8.659,129.87012987012943
8680.0,1863.0,57.0,0.0,0.0,0.0,0.0,0.0,1.0,0.24,-0.09,10.33,-0.03,0.01,0.0,26.32,0.53,-0.14,22.58,8.68,129.87012987012943
8701.0,1983.0,177.0,0.0,0.0,0.0,0.0,0.0,1.0,0.25,-0.06,10.31,-0.03,0.01,0.0,26.32,0.53,-0.14,22.8,8.701,129.87012987012943
8722.0,1943.0,137.0,0.0,0.0,0.0,0.0,0.0,1.0,0.22,-0.05,10.32,-0.03,0.01,0.0,26.32,0.54,-0.14,23.01,8.722,129.87012987012943
8743.0,1953.0,147.0,0.0,0.0,0.0,0.0,0.0,1.0,0.24,-0.08,10.33,-0.03,0.01,0.0,26.32,0.54,-0.14,23.23,8.743,129.87012987012943
8764.0,1952.0,146.0,0.0,0.0,0.0,0.0,0.0,1.0,0.23,-0.06,10.3,-0.03,0.01,0.0,26.33,0.55,-0.14,23.45,8.764,129.87012987012943
8785.0,0.0,-1806.0,0.0,0.0,0.0,0.0,0.0,1.0,0.24,-0.07,10.35,-0.03,0.01,0.0,26.31,0.55,-0.14,23.66,8.785,129.87012987012943
8806.0,0.0,-1806.0,0.0,0.0,0.0,0.0,0.0,1.0,0.24,-0.07,10.32,-0.03,0.01,0.0,26.32,0.56,-0.15,23.88,8.806,129.87012987012943
8827.0,0.0,-1806.0,0.0,0.0,0.0,0.0,0.0,1.0,0.23,-0.07,10.32,-0.03,0.01,0.0,26.33,0.56,-0.15,24.1,8.827,129.87012987012943
8848.0,0.0,-1806.0,0.0,0.0,0.0,0.0,0.0,1.0,0.22,-0.07,10.31,-0.03,0.01,0.0,26.35,0.56,-0.15,24.31,8.848,129.87012987012943
8869.0,0.0,-1806.0,0.0,0.0,0.0,0.0,0.0,1.0,0.23,-0.07,10.36,-0.03,0.01,0.0,26.33,0.57,-0.15,24.53,8.869,129.87012987012943
8890.0,0.0,-1806.0,0.0,0.0,0.0,0.0,0.0,1.0,0.23,-0.07,10.31,-0.03,0.01,0.0,26.32,0.57,-0.15,24.75,8.89,129.87012987012943
8911.0,0.0,-1806.0,0.0,0.0,0.0,0.0,0.0,1.0,0.26,-0.05,10.34,-0.03,0.01,0.0,26.31,0.58,-0.15,24.96,8.911,129.87012987012943
8932.0,0.0,-1806.0,0.0,0.0,0.0,0.0,0.0,1.0,0.24,-0.07,10.34,-0.03,0.01,0.0,26.33,0.58,-0.15,25.18,8.932,129.87012987012943
8953.0,2086.0,280.0,0.0,0.0,0.0,0.0,0.0,1.0,0.22,-0.05,10.33,-0.03,0.01,0.0,26.33,0.59,-0.16,25.4,8.953,129.87012987012943
8974.0,1909.0,103.0,0.0,0.0,0.0,0.0,0.0,1.0,0.24,-0.05,10.35,-0.03,0.01,0.0,26.31,0.59,-0.16,25.62,8.974,129.87012987012943
8995.0,1906.0,100.0,0.0,0.0,0.0,0.0,0.0,2.0,0.22,-0.07,10.31,-0.03,0.01,0.0,26.32,0.6,-0.16,25.83,8.995,129.87012987012943
9016.0,1890.0,84.0,0.0,0.0,0.0,0.0,0.0,2.0,0.25,-0.05,10.34,-0.03,0.01,0.0,26.31,0.6,-0.16,26.05,9.016,129.87012987012943
9037.0,1917.0,111.0,0.0,0.0,0.0,0.0,0.0,2.0,0.23,-0.07,10.32,-0.03,0.01,0.01,26.31,0.61,-0.16,26.27,9.037,129.87012987012943
9058.0,1767.0,-39.0,0.0,0.0,0.0,0.0,0.0,2.0,0.23,-0.07,10.32,-0.03,0.01,0.0,26.34,0.61,-0.16,26.48,9.058,51.948051948051976
9079.0,1091.0,-715.0,0.0,0.0,0.0,0.0,0.0,2.0,0.24,-0.08,10.32,-0.03,0.01,0.0,26.33,0.62,-0.16,26.7,9.079,51.948051948051976
9100.0,330.0,-1476.0,0.0,0.0,0.0,0.0,0.0,2.0,0.24,-0.07,10.3,-0.03,0.01,0.0,26.34,0.62,-0.16,26.92,9.1,51.948051948051976
9121.0,2053.0,247.0,0.0,0.0,0.0,0.0,0.0,2.0,0.24,-0.06,10.33,-0.03,0.01,0.0,26.33,0.63,-0.17,27.13,9.121,51.948051948051976
9142.0,2005.0,199.0,0.0,0.0,0.0,0.0,0.0,1.0,0.24,-0.06,10.34,-0.03,0.01,0.0,26.31,0.63,-0.17,27.35,9.142,51.948051948051976
9163.0,1877.0,71.0,0.0,0.0,0.0,0.0,0.0,1.0,0.25,-0.06,10.35,-0.03,0.01,0.01,26.32,0.64,-0.17,27.57,9.163,51.948051948051976
9184.0,2035.0,229.0,0.0,0.0,0.0,0.0,0.0,2.0,0.24,-0.07,10.33,-0.03,0.01,0.0,26.32,0.64,-0.17,27.78,9.184,51.948051948051976
9205.0,2097.0,291.0,0.0,0.0,0.0,0.0,0.0,2.0,0.23,-0.06,10.32,-0.03,0.01,0.0,26.33,0.65,-0.17,28.0,9.205,51.948051948051976
9226.0,1831.0,25.0,0.0,0.0,0.0,0.0,0.0,2.0,0.23,-0.06,10.34,-0.03,0.01,0.0,26.33,0.65,-0.17,28.22,9.226,51.948051948051976
9247.0,1741.0,-65.0,0.0,0.0,0.0,0.0,0.0,2.0,0.25,-0.06,10.33,-0.03,0.01,0.0,26.32,0.66,-0.17,28.43,9.247,51.948051948051976
9268.0,328.0,-1478.0,0.0,0.0,0.0,0.0,0.0,2.0,0.24,-0.05,10.31,-0.03,0.01,0.0,26.33,0.66,-0.17,28.65,9.268,51.948051948051976
9289.0,1995.0,189.0,0.0,0.0,0.0,0.0,0.0,2.0,0.24,-0.06,10.34,-0.03,0.01,0.0,26.33,0.67,-0.18,28.87,9.289,51.948051948051976
9310.0,2096.0,290.0,0.0,0.0,0.0,0.0,0.0,2.0,0.24,-0.07,10.34,-0.03,0.01,0.0,26.32,0.67,-0.18,29.09,9.31,51.948051948051976
9331.0,1938.0,132.0,0.0,0.0,0.0,0.0,0.0,2.0,0.25,-0.05,10.34,-0.03,0.01,0.0,26.33,0.68,-0.18,29.3,9.331,51.948051948051976
9352.0,1946.0,140.0,0.0,0.0,0.0,0.0,0.0,2.0,0.25,-0.05,10.35,-0.03,0.01,0.0,26.31,0.69,-0.18,29.52,9.352,51.948051948051976
9373.0,2066.0,260.0,0.0,0.0,0.0,0.0,0.0,2.0,0.23,-0.05,10.33,-0.03,0.01,0.0,26.32,0.69,-0.18,29.74,9.373,51.948051948051976
9394.0,1967.0,161.0,0.0,0.0,0.0,0.0,0.0,2.0,0.25,-0.06,10.31,-0.03,0.01,0.0,26.33,0.7,-0.18,29.95,9.394,51.948051948051976
9415.0,1989.0,183.0,0.0,0.0,0.0,0.0,0.0,2.0,0.24,-0.08,10.34,-0.03,0.01,0.0,26.32,0.7,-0.18,30.17,9.415,51.948051948051976
9436.0,1966.0,160.0,0.0,0.0,0.0,0.0,0.0,2.0,0.26,-0.06,10.3,-0.03,0.01,0.0,26.33,0.71,-0.18,30.39,9.436,51.948051948051976
9457.0,1919.0,113.0,0.0,0.0,0.0,0.0,0.0,2.0,0.24,-0.06,10.34,-0.03,0.01,0.0,26.32,0.71,-0.19,30.6,9.457,51.948051948051976
9478.0,1991.0,185.0,0.0,0.0,0.0,0.0,0.0,2.0,0.26,-0.06,10.33,-0.03,0.01,0.0,26.3,0.72,-0.19,30.82,9.478,51.948051948051976
9499.0,1936.0,130.0,0.0,0.0,0.0,0.0,0.0,2.0,0.23,-0.07,10.33,-0.03,0.01,0.0,26.32,0.72,-0.19,31.04,9.499,51.948051948051976
9520.0,1853.0,47.0,0.0,0.0,0.0,0.0,0.0,2.0,0.24,-0.07,10.3,-0.03,0.01,0.0,26.34,0.73,-0.19,31.26,9.52,51.948051948051976
9541.0,1959.0,153.0,0.0,0.0,0.0,0.0,0.0,2.0,0.23,-0.07,10.31,-0.03,0.01,0.0,26.3,0.73,-0.19,31.47,9.541,51.948051948051976
9562.0,1907.0,101.0,0.0,0.0,0.0,0.0,0.0,2.0,0.24,-0.07,10.36,-0.03,0.01,0.0,26.32,0.74,-0.19,31.69,9.562,51.948051948051976
9583.0,1905.0,99.0,0.0,0.0,0.0,0.0,0.0,2.0,0.23,-0.07,10.34,-0.03,0.01,0.0,26.31,0.74,-0.19,31.91,9.583,51.948051948051976
9604.0,0.0,-1806.0,0.0,0.0,0.0,0.0,0.0,2.0,0.24,-0.04,10.35,-0.03,0.01,0.0,26.3,0.75,-0.2,32.12,9.604,51.948051948051976
9625.0,0.0,-1806.0,0.0,0.0,0.0,0.0,0.0,2.0,0.24,-0.06,10.32,-0.03,0.01,0.0,26.32,0.75,-0.2,32.34,9.625,51.948051948051976
9646.0,1855.0,49.0,0.0,0.0,0.0,0.0,0.0,2.0,0.24,-0.08,10.33,-0.03,0.01,0.0,26.3,0.76,-0.2,32.56,9.646,51.948051948051976
9667.0,1949.0,143.0,0.0,0.0,0.0,0.0,0.0,2.0,0.25,-0.08,10.32,-0.03,0.01,0.01,26.32,0.76,-0.2,32.77,9.667,51.948051948051976
9688.0,2037.0,231.0,0.0,0.0,0.0,0.0,0.0,2.0,0.23,-0.07,10.32,-0.03,0.01,0.0,26.32,0.77,-0.2,32.99,9.688,51.948051948051976
9709.0,1883.0,77.0,0.0,0.0,0.0,0.0,0.0,2.0,0.23,-0.07,10.34,-0.03,0.01,0.0,26.33,0.77,-0.2,33.21,9.709,51.948051948051976
9730.0,1792.0,-14.0,0.0,0.0,0.0,0.0,0.0,2.0,0.22,-0.05,10.35,-0.03,0.01,0.01,26.34,0.78,-0.2,33.42,9.73,51.948051948051976
9751.0,1877.0,71.0,0.0,0.0,0.0,0.0,0.0,0.0,0.23,-0.05,10.35,-0.03,0.01,0.0,26.33,0.78,-0.2,33.64,9.751,51.948051948051976
9790.0,1933.0,127.0,0.0,0.0,0.0,0.0,0.0,2.0,0.23,-0.05,10.33,-0.03,0.01,0.0,26.32,0.79,-0.21,34.05,9.79,51.948051948051976
9811.0,2251.0,445.0,0.0,0.0,0.0,0.0,0.0,2.0,0.23,-0.07,10.34,-0.03,0.01,0.0,26.34,0.79,-0.21,34.26,9.811,51.948051948051976
9832.0,1895.0,89.0,0.0,0.0,0.0,0.0,0.0,2.0,0.24,-0.05,10.34,-0.03,0.01,0.0,26.33,0.8,-0.21,34.48,9.832,51.948051948051976
9853.0,2096.0,290.0,0.0,0.0,0.0,0.0,0.0,2.0,0.25,-0.06,10.34,-0.03,0.01,0.0,26.34,0.81,-0.21,34.7,9.853,51.948051948051976
9874.0,1473.0,-333.0,0.0,0.0,0.0,0.0,0.0,2.0,0.25,-0.06,10.31,-0.03,0.01,0.0,26.32,0.81,-0.21,34.91,9.874,51.948051948051976
9895.0,1913.0,107.0,0.0,0.0,0.0,0.0,0.0,2.0,0.24,-0.07,10.34,-0.03,0.01,0.0,26.33,0.82,-0.21,35.13,9.895,51.948051948051976
9916.0,1946.0,140.0,0.0,0.0,0.0,0.0,0.0,2.0,0.23,-0.07,10.33,-0.03,0.01,0.0,26.32,0.82,-0.21,35.35,9.916,51.948051948051976
9937.0,1834.0,28.0,0.0,0.0,0.0,0.0,0.0,2.0,0.23,-0.07,10.34,-0.03,0.01,0.01,26.32,0.83,-0.22,35.56,9.937,51.948051948051976
9958.0,1439.0,-367.0,0.0,0.0,0.0,0.0,0.0,2.0,0.24,-0.07,10.35,-0.03,0.01,0.0,26.32,0.83,-0.22,35.78,9.958,51.948051948051976
9979.0,1915.0,109.0,0.0,0.0,0.0,0.0,0.0,2.0,0.22,-0.07,10.3,-0.03,0.01,0.0,26.32,0.84,-0.22,36.0,9.979,51.948051948051976
10000.0,1984.0,178.0,0.0,0.0,0.0,0.0,0.0,2.0,0.24,-0.07,10.36,-0.03,0.01,0.0,26.32,0.84,-0.22,36.22,10.0,51.948051948051976
10021.0,2157.0,351.0,0.0,0.0,0.0,0.0,0.0,2.0,0.23,-0.05,10.36,-0.03,0.01,0.0,26.31,0.84,-0.22,36.43,10.021,51.948051948051976
10042.0,1802.0,-4.0,0.0,0.0,0.0,0.0,0.0,2.0,0.24,-0.06,10.32,-0.03,0.01,0.0,26.3,0.85,-0.22,36.65,10.042,51.948051948051976
10063.0,2000.0,194.0,0.0,0.0,0.0,0.0,0.0,2.0,0.25,-0.08,10.31,-0.03,0.01,0.0,26.32,0.85,-0.22,36.87,10.063,51.948051948051976
10084.0,1729.0,-77.0,0.0,0.0,0.0,0.0,0.0,2.0,0.24,-0.06,10.35,-0.03,0.01,0.0,26.32,0.86,-0.23,37.08,10.084,51.948051948051976
10105.0,1523.0,-283.0,0.0,0.0,0.0,0.0,0.0,2.0,0.23,-0.07,10.3,-0.03,0.01,0.01,26.32,0.87,-0.23,37.3,10.105,51.948051948051976
10126.0,3025.0,1219.0,0.0,0.0,0.0,0.0,0.0,2.0,0.26,-0.07,10.32,-0.03,0.01,0.01,26.32,0.87,-0.23,37.52,10.126,51.948051948051976
10147.0,1454.0,-352.0,0.0,0.0,0.0,0.0,0.0,2.0,0.24,-0.05,10.33,-0.03,0.01,0.01,26.31,0.88,-0.23,37.73,10.147,51.948051948051976
10168.0,2526.0,720.0,0.0,0.0,0.0,0.0,0.0,2.0,0.23,-0.05,10.33,-0.03,0.01,0.0,26.31,0.88,-0.23,37.95,10.168,51.948051948051976
10189.0,2127.0,321.0,0.0,0.0,0.0,0.0,0.0,2.0,0.25,-0.07,10.31,-0.03,0.01,0.0,26.32,0.89,-0.23,38.17,10.189,51.948051948051976
10210.0,2126.0,320.0,0.0,0.0,0.0,0.0,0.0,2.0,0.24,-0.08,10.33,-0.03,0.01,0.0,26.33,0.89,-0.23,38.38,10.21,51.948051948051976
10231.0,1439.0,-367.0,0.0,0.0,0.0,0.0,0.0,2.0,0.24,-0.08,10.34,-0.03,0.01,0.0,26.34,0.9,-0.24,38.6,10.231,50.251256281407
10252.0,1760.0,-46.0,0.0,0.0,0.0,0.0,0.0,2.0,0.25,-0.06,10.33,-0.03,0.01,0.0,26.33,0.9,-0.24,38.82,10.252,50.251256281407
10273.0,1253.0,-553.0,0.0,0.0,0.0,0.0,0.0,2.0,0.26,-0.05,10.33,-0.03,0.01,0.0,26.33,0.91,-0.24,39.04,10.273,50.251256281407
10294.0,1770.0,-36.0,0.0,0.0,0.0,0.0,0.0,2.0,0.24,-0.05,10.31,-0.03,0.01,0.01,26.33,0.91,-0.24,39.25,10.294,50.251256281407
10315.0,1837.0,31.0,0.0,0.0,0.0,0.0,0.0,2.0,0.23,-0.07,10.31,-0.03,0.01,0.01,26.3,0.92,-0.24,39.47,10.315,50.251256281407
10336.0,2121.0,315.0,0.0,0.0,0.0,0.0,0.0,2.0,0.23,-0.05,10.31,-0.03,0.01,0.0,26.33,0.92,-0.24,39.69,10.336,50.251256281407
10357.0,2119.0,313.0,0.0,0.0,0.0,0.0,0.0,2.0,0.23,-0.07,10.32,-0.03,0.01,0.0,26.32,0.93,-0.24,39.9,10.357,50.251256281407
10378.0,2254.0,448.0,0.0,0.0,0.0,0.0,0.0,2.0,0.21,-0.06,10.31,-0.03,0.01,0.0,26.31,0.93,-0.24,40.12,10.378,50.251256281407
10399.0,2353.0,547.0,0.0,0.0,0.0,0.0,0.0,2.0,0.23,-0.05,10.33,-0.03,0.01,0.0,26.32,0.94,-0.25,40.34,10.399,50.251256281407
10420.0,1535.0,-271.0,0.0,0.0,0.0,0.0,0.0,2.0,0.23,-0.06,10.3,-0.03,0.01,0.0,26.31,0.94,-0.25,40.55,10.42,50.251256281407
10441.0,2160.0,354.0,0.0,0.0,0.0,0.0,0.0,2.0,0.23,-0.05,10.33,-0.03,0.01,0.0,26.32,0.94,-0.25,40.77,10.441,50.251256281407
10462.0,779.0,-1027.0,0.0,0.0,0.0,0.0,0.0,2.0,0.24,-0.07,10.36,-0.03,0.01,0.0,26.32,0.95,-0.25,40.99,10.462,50.251256281407
10483.0,2061.0,255.0,0.0,0.0,0.0,0.0,0.0,2.0,0.23,-0.06,10.33,-0.03,0.01,0.0,26.32,0.95,-0.25,41.2,10.483,50.251256281407
10504.0,1333.0,-473.0,0.0,0.0,0.0,0.0,0.0,2.0,0.23,-0.07,10.33,-0.03,0.01,0.01,26.31,0.96,-0.25,41.42,10.504,50.251256281407
10525.0,3503.0,1697.0,0.0,0.0,0.0,0.0,0.0,2.0,0.25,-0.06,10.33,-0.03,0.01,0.0,26.32,0.96,-0.25,41.64,10.525,50.251256281407
10546.0,1171.0,-635.0,0.0,0.0,0.0,0.0,0.0,2.0,0.23,-0.07,10.34,-0.03,0.01,0.01,26.32,0.97,-0.25,41.85,10.546,50.251256281407
10567.0,2544.0,738.0,0.0,0.0,0.0,0.0,0.0,2.0,0.24,-0.06,10.33,-0.03,0.01,0.0,26.32,0.97,-0.26,42.07,10.567,50.251256281407
10588.0,3859.0,2053.0,0.0,0.0,0.0,0.0,0.0,2.0,0.24,-0.07,10.32,-0.03,0.01,0.01,26.3,0.98,-0.26,42.29,10.588,50.251256281407
10609.0,4095.0,2289.0,0.0,0.0,0.0,0.0,0.0,2.0,0.25,-0.07,10.35,-0.03,0.01,0.01,26.32,0.98,-0.26,42.51,10.609,50.251256281407
10630.0,1964.0,158.0,0.0,0.0,0.0,0.0,0.0,2.0,0.24,-0.06,10.32,-0.03,0.01,0.01,26.31,0.99,-0.26,42.72,10.63,50.251256281407
10651.0,1768.0,-38.0,0.0,0.0,0.0,0.0,0.0,2.0,0.26,-0.07,10.33,-0.03,0.01,0.0,26.32,1.0,-0.26,42.94,10.651,50.251256281407
10672.0,2763.0,957.0,0.0,0.0,0.0,0.0,0.0,2.0,0.24,-0.07,10.32,-0.03,0.01,0.0,26.32,1.0,-0.26,43.16,10.672,50.251256281407
10693.0,2979.0,1173.0,0.0,0.0,0.0,0.0,0.0,2.0,0.24,-0.07,10.33,-0.03,0.01,0.0,26.32,1.01,-0.26,43.37,10.693,50.251256281407
10714.0,2173.0,367.0,0.0,0.0,0.0,0.0,0.0,2.0,0.24,-0.08,10.34,-0.03,0.01,0.0,26.31,1.01,-0.27,43.59,10.714,50.251256281407
10735.0,2313.0,507.0,0.0,0.0,0.0,0.0,0.0,2.0,0.24,-0.07,10.31,-0.03,0.01,0.0,26.32,1.02,-0.27,43.81,10.735,50.251256281407
10756.0,1232.0,-574.0,0.0,0.0,0.0,0.0,0.0,2.0,0.24,-0.06,10.33,-0.03,0.01,0.0,26.31,1.02,-0.27,44.02,10.756,50.251256281407
10777.0,532.0,-1274.0,0.0,0.0,0.0,0.0,0.0,2.0,0.23,-0.06,10.35,-0.03,0.01,0.0,26.31,1.03,-0.27,44.24,10.777,50.251256281407
10798.0,2304.0,498.0,0.0,0.0,0.0,0.0,0.0,2.0,0.23,-0.06,10.34,-0.03,0.01,0.0,26.3,1.03,-0.27,44.46,10.798,50.251256281407
10819.0,4095.0,2289.0,0.0,0.0,0.0,0.0,0.0,2.0,0.25,-0.06,10.33,-0.03,0.01,0.0,26.3,1.04,-0.27,44.68,10.819,50.251256281407
10840.0,352.0,-1454.0,0.0,0.0,0.0,0.0,0.0,2.0,0.24,-0.03,10.34,-0.03,0.01,0.0,26.31,1.04,-0.27,44.89,10.84,50.251256281407
10861.0,2077.0,271.0,0.0,0.0,0.0,0.0,0.0,2.0,0.23,-0.06,10.32,-0.03,0.01,0.0,26.33,1.05,-0.27,45.11,10.861,50.251256281407
10882.0,1970.0,164.0,0.0,0.0,0.0,0.0,0.0,2.0,0.22,-0.06,10.32,-0.03,0.01,0.0,26.31,1.05,-0.28,45.33,10.882,50.251256281407
10903.0,1766.0,-40.0,0.0,0.0,0.0,0.0,0.0,2.0,0.23,-0.06,10.32,-0.03,0.01,0.0,26.32,1.06,-0.28,45.54,10.903,50.251256281407
10924.0,1893.0,87.0,0.0,0.0,0.0,0.0,0.0,2.0,0.23,-0.04,10.35,-0.03,0.01,0.01,26.33,1.06,-0.28,45.76,10.924,50.251256281407
10945.0,823.0,-983.0,0.0,0.0,0.0,0.0,0.0,2.0,0.23,-0.07,10.34,-0.03,0.01,0.0,26.31,1.06,-0.28,45.98,10.945,50.251256281407
10966.0,2688.0,882.0,0.0,0.0,0.0,0.0,0.0,2.0,0.24,-0.06,10.34,-0.03,0.01,0.01,26.35,1.07,-0.28,46.19,10.966,50.251256281407
10987.0,3885.0,2079.0,0.0,0.0,0.0,0.0,0.0,2.0,0.24,-0.06,10.33,-0.03,0.01,0.0,26.33,1.07,-0.28,46.41,10.987,50.251256281407
11008.0,1441.0,-365.0,0.0,0.0,0.0,0.0,0.0,2.0,0.24,-0.06,10.33,-0.03,0.01,0.01,26.33,1.08,-0.28,46.63,11.008,50.251256281407
11029.0,3069.0,1263.0,0.0,0.0,0.0,0.0,0.0,2.0,0.24,-0.06,10.32,-0.03,0.01,0.0,26.33,1.09,-0.28,46.85,11.029,50.251256281407
11050.0,2256.0,450.0,0.0,0.0,0.0,0.0,0.0,2.0,0.25,-0.05,10.31,-0.03,0.01,0.0,26.34,1.09,-0.29,47.06,11.05,50.251256281407
11071.0,3051.0,1245.0,0.0,0.0,0.0,0.0,0.0,2.0,0.22,-0.06,10.32,-0.03,0.01,0.0,26.32,1.1,-0.29,47.28,11.071,50.251256281407
11092.0,1633.0,-173.0,0.0,0.0,0.0,0.0,0.0,2.0,0.24,-0.07,10.33,-0.03,0.01,0.01,26.32,1.1,-0.29,47.5,11.092,50.251256281407
11113.0,1904.0,98.0,0.0,0.0,0.0,0.0,0.0,2.0,0.23,-0.07,10.33,-0.03,0.01,0.0,26.31,1.11,-0.29,47.71,11.113,50.251256281407
11134.0,1633.0,-173.0,0.0,0.0,0.0,0.0,0.0,2.0,0.22,-0.04,10.36,-0.03,0.01,0.0,26.34,1.11,-0.29,47.93,11.134,98.52216748768473
11155.0,1793.0,-13.0,0.0,0.0,0.0,0.0,0.0,2.0,0.24,-0.04,10.33,-0.03,0.01,0.0,26.32,1.11,-0.29,48.15,11.155,98.52216748768473
11176.0,1849.0,43.0,0.0,0.0,0.0,0.0,0.0,2.0,0.24,-0.05,10.32,-0.03,0.01,0.0,26.34,1.12,-0.29,48.36,11.176,98.52216748768473
11197.0,1914.0,108.0,0.0,0.0,0.0,0.0,0.0,2.0,0.24,-0.06,10.34,-0.03,0.01,0.0,26.33,1.12,-0.29,48.58,11.197,98.52216748768473
11218.0,1751.0,-55.0,0.0,0.0,0.0,0.0,0.0,2.0,0.23,-0.05,10.31,-0.03,0.01,0.01,26.29,1.13,-0.29,48.8,11.218,98.52216748768473
11239.0,965.0,-841.0,0.0,0.0,0.0,0.0,0.0,2.0,0.24,-0.06,10.31,-0.03,0.01,0.0,26.33,1.13,-0.3,49.01,11.239,98.52216748768473
11260.0,768.0,-1038.0,0.0,0.0,0.0,0.0,0.0,2.0,0.24,-0.06,10.32,-0.03,0.01,0.0,26.34,1.14,-0.3,49.23,11.26,98.52216748768473
11281.0,1823.0,17.0,0.0,0.0,0.0,0.0,0.0,2.0,0.25,-0.06,10.32,-0.03,0.01,0.0,26.33,1.14,-0.3,49.45,11.281,98.52216748768473
11302.0,1893.0,87.0,0.0,0.0,0.0,0.0,0.0,2.0,0.23,-0.06,10.33,-0.03,0.01,0.0,26.32,1.15,-0.3,49.66,11.302,98.52216748768473
11323.0,1875.0,69.0,0.0,0.0,0.0,0.0,0.0,2.0,0.23,-0.06,10.35,-0.03,0.01,0.0,26.31,1.15,-0.3,49.88,11.323,98.52216748768473
11344.0,1255.0,-551.0,0.0,0.0,0.0,0.0,0.0,2.0,0.23,-0.07,10.32,-0.03,0.01,0.01,26.33,1.16,-0.3,50.1,11.344,98.52216748768473
11365.0,1957.0,151.0,0.0,0.0,68.0,0.0,96.0,3.0,0.24,-0.05,10.34,-0.03,0.01,0.01,26.33,1.16,-0.3,50.32,11.365,98.52216748768473
11386.0,1738.0,-68.0,0.0,0.0,0.0,0.0,0.0,3.0,0.23,-0.06,10.35,-0.03,0.01,0.0,26.34,1.17,-0.3,50.53,11.386,98.52216748768473
11407.0,1926.0,120.0,0.0,0.0,0.0,0.0,0.0,3.0,0.23,-0.07,10.35,-0.03,0.01,0.0,26.32,1.17,-0.31,50.75,11.407,98.52216748768473
11428.0,3865.0,2059.0,0.0,0.0,0.0,0.0,0.0,3.0,0.24,-0.08,10.33,-0.03,0.01,0.0,26.32,1.18,-0.31,50.97,11.428,98.52216748768473
11449.0,2000.0,194.0,0.0,0.0,0.0,0.0,0.0,3.0,0.23,-0.07,10.33,-0.03,0.01,0.0,26.33,1.18,-0.31,51.18,11.449,98.52216748768473
11470.0,618.0,-1188.0,0.0,0.0,0.0,0.0,0.0,3.0,0.24,-0.08,10.32,-0.03,0.01,0.0,26.3,1.19,-0.31,51.4,11.47,98.52216748768473
11491.0,1223.0,-583.0,0.0,0.0,0.0,0.0,0.0,3.0,0.23,-0.06,10.35,-0.03,0.01,0.0,26.34,1.19,-0.31,51.62,11.491,98.52216748768473
11512.0,1840.0,34.0,0.0,0.0,0.0,0.0,0.0,3.0,0.24,-0.06,10.3,-0.03,0.01,0.01,26.34,1.2,-0.31,51.83,11.512,98.52216748768473
11533.0,1934.0,128.0,0.0,0.0,0.0,0.0,0.0,3.0,0.26,-0.07,10.32,-0.03,0.01,0.01,26.33,1.2,-0.31,52.05,11.533,98.52216748768473
11554.0,1931.0,125.0,0.0,0.0,0.0,0.0,0.0,3.0,0.24,-0.07,10.33,-0.03,0.01,0.0,26.32,1.21,-0.32,52.27,11.554,98.52216748768473
11575.0,1925.0,119.0,0.0,0.0,0.0,0.0,0.0,3.0,0.21,-0.04,10.34,-0.03,0.01,0.0,26.33,1.21,-0.32,52.49,11.575,98.52216748768473
11596.0,1860.0,54.0,0.0,0.0,0.0,0.0,0.0,3.0,0.24,-0.06,10.32,-0.03,0.01,0.0,26.34,1.22,-0.32,52.7,11.596,98.52216748768473
11617.0,1883.0,77.0,0.0,0.0,0.0,0.0,0.0,3.0,0.24,-0.07,10.33,-0.03,0.01,0.0,26.32,1.22,-0.32,52.92,11.617,98.52216748768473
11638.0,1929.0,123.0,0.0,0.0,0.0,0.0,0.0,3.0,0.24,-0.05,10.33,-0.03,0.01,0.01,26.34,1.23,-0.32,53.14,11.638,98.52216748768473
11659.0,1702.0,-104.0,0.0,0.0,0.0,0.0,0.0,3.0,0.26,-0.05,10.36,-0.03,0.01,0.0,26.34,1.23,-0.32,53.35,11.659,98.52216748768473
11680.0,1935.0,129.0,0.0,0.0,0.0,0.0,0.0,3.0,0.23,-0.06,10.32,-0.03,0.01,0.0,26.31,1.24,-0.32,53.57,11.68,98.52216748768473
11701.0,1888.0,82.0,0.0,0.0,0.0,0.0,0.0,3.0,0.23,-0.07,10.32,-0.03,0.01,0.0,26.32,1.24,-0.32,53.79,11.701,98.52216748768473
11722.0,1930.0,124.0,0.0,0.0,0.0,0.0,0.0,3.0,0.25,-0.06,10.35,-0.03,0.01,0.0,26.32,1.25,-0.33,54.0,11.722,98.52216748768473
11743.0,2055.0,249.0,0.0,0.0,0.0,0.0,0.0,3.0,0.23,-0.06,10.31,-0.03,0.01,0.0,26.32,1.25,-0.33,54.22,11.743,98.52216748768473
11764.0,1930.0,124.0,0.0,0.0,0.0,0.0,0.0,3.0,0.25,-0.05,10.35,-0.03,0.01,0.0,26.33,1.26,-0.33,54.44,11.764,98.52216748768473
11785.0,1922.0,116.0,0.0,0.0,0.0,0.0,0.0,3.0,0.24,-0.07,10.33,-0.03,0.01,0.0,26.33,1.27,-0.33,54.66,11.785,98.52216748768473
11806.0,1660.0,-146.0,0.0,0.0,0.0,0.0,0.0,3.0,0.25,-0.06,10.31,-0.03,0.01,0.0,26.32,1.27,-0.33,54.87,11.806,98.52216748768473
11827.0,1194.0,-612.0,0.0,0.0,0.0,0.0,0.0,3.0,0.24,-0.05,10.33,-0.03,0.01,0.0,26.34,1.28,-0.33,55.09,11.827,98.52216748768473
11848.0,1766.0,-40.0,0.0,0.0,0.0,0.0,0.0,3.0,0.24,-0.07,10.36,-0.03,0.01,0.0,26.33,1.28,-0.33,55.31,11.848,98.52216748768473
11869.0,1829.0,23.0,0.0,0.0,0.0,0.0,0.0,3.0,0.24,-0.05,10.36,-0.03,0.01,0.0,26.32,1.29,-0.33,55.52,11.869,98.52216748768473
11890.0,1931.0,125.0,0.0,0.0,0.0,0.0,0.0,3.0,0.23,-0.06,10.35,-0.03,0.01,0.0,26.32,1.29,-0.34,55.74,11.89,98.52216748768473
11911.0,1914.0,108.0,0.0,0.0,0.0,0.0,0.0,3.0,0.24,-0.08,10.34,-0.03,0.01,0.0,26.34,1.3,-0.34,55.96,11.911,98.52216748768473
11932.0,1929.0,123.0,0.0,0.0,0.0,0.0,0.0,3.0,0.25,-0.07,10.32,-0.03,0.01,0.0,26.33,1.3,-0.34,56.18,11.932,98.52216748768473
11953.0,1926.0,120.0,0.0,0.0,0.0,0.0,0.0,3.0,0.26,-0.07,10.33,-0.03,0.01,0.01,26.31,1.31,-0.34,56.39,11.953,59.523809523809575
11974.0,1929.0,123.0,0.0,0.0,0.0,0.0,0.0,3.0,0.25,-0.05,10.32,-0.03,0.01,0.01,26.33,1.31,-0.34,56.61,11.974,59.523809523809575
11995.0,1915.0,109.0,0.0,0.0,0.0,0.0,0.0,3.0,0.23,-0.06,10.31,-0.03,0.01,0.0,26.34,1.32,-0.34,56.83,11.995,59.523809523809575
12016.0,1947.0,141.0,0.0,0.0,0.0,0.0,0.0,3.0,0.24,-0.07,10.3,-0.03,0.01,0.0,26.31,1.32,-0.34,57.04,12.016,59.523809523809575
12037.0,1616.0,-190.0,0.0,0.0,0.0,0.0,0.0,3.0,0.23,-0.07,10.33,-0.03,0.01,0.0,26.32,1.33,-0.34,57.26,12.037,59.523809523809575
12058.0,1718.0,-88.0,0.0,0.0,0.0,0.0,0.0,3.0,0.22,-0.07,10.32,-0.03,0.01,0.0,26.32,1.33,-0.35,57.48,12.058,59.523809523809575
12079.0,1721.0,-85.0,0.0,0.0,0.0,0.0,0.0,3.0,0.21,-0.05,10.3,-0.03,0.01,0.0,26.33,1.34,-0.35,57.69,12.079,59.523809523809575
12100.0,2540.0,734.0,0.0,0.0,0.0,0.0,0.0,3.0,0.25,-0.06,10.32,-0.03,0.01,0.0,26.32,1.34,-0.35,57.91,12.1,59.523809523809575
12121.0,656.0,-1150.0,0.0,0.0,0.0,0.0,0.0,3.0,0.24,-0.07,10.33,-0.03,0.01,0.0,26.33,1.35,-0.35,58.13,12.121,59.523809523809575
12142.0,1959.0,153.0,0.0,0.0,0.0,0.0,0.0,3.0,0.23,-0.06,10.35,-0.03,0.01,0.0,26.32,1.35,-0.35,58.34,12.142,59.523809523809575
12163.0,2369.0,563.0,0.0,0.0,0.0,0.0,0.0,3.0,0.23,-0.06,10.3,-0.03,0.01,0.0,26.33,1.36,-0.35,58.56,12.163,59.523809523809575
12184.0,2963.0,1157.0,0.0,0.0,0.0,0.0,0.0,3.0,0.24,-0.07,10.3,-0.03,0.01,0.0,26.31,1.36,-0.35,58.78,12.184,59.523809523809575
12205.0,1808.0,2.0,0.0,0.0,0.0,0.0,0.0,3.0,0.23,-0.04,10.34,-0.03,0.01,0.0,26.32,1.37,-0.36,58.99,12.205,59.523809523809575
12226.0,976.0,-830.0,0.0,0.0,0.0,0.0,0.0,3.0,0.26,-0.05,10.33,-0.03,0.01,0.0,26.32,1.37,-0.36,59.21,12.226,59.523809523809575
12247.0,1683.0,-123.0,0.0,0.0,0.0,0.0,0.0,3.0,0.25,-0.06,10.32,-0.03,0.01,0.0,26.32,1.38,-0.36,59.43,12.247,59.523809523809575
12268.0,592.0,-1214.0,0.0,0.0,0.0,0.0,0.0,3.0,0.25,-0.06,10.34,-0.03,0.01,0.0,26.32,1.38,-0.36,59.64,12.268,59.523809523809575
12289.0,1847.0,41.0,0.0,0.0,0.0,0.0,0.0,3.0,0.26,-0.06,10.36,-0.03,0.01,0.0,26.31,1.39,-0.36,59.86,12.289,59.523809523809575
12310.0,1658.0,-148.0,0.0,0.0,0.0,0.0,0.0,3.0,0.24,-0.07,10.32,-0.03,0.01,0.0,26.32,1.39,-0.36,60.08,12.31,59.523809523809575
12331.0,1693.0,-113.0,0.0,0.0,0.0,0.0,0.0,3.0,0.24,-0.08,10.36,-0.03,0.01,0.0,26.32,1.4,-0.36,60.29,12.331,59.523809523809575
12352.0,3706.0,1900.0,0.0,0.0,0.0,0.0,0.0,3.0,0.24,-0.06,10.35,-0.03,0.01,0.0,26.31,1.4,-0.36,60.51,12.352,59.523809523809575
12373.0,0.0,-1806.0,0.0,0.0,0.0,0.0,0.0,3.0,0.23,-0.06,10.34,-0.03,0.01,0.0,26.31,1.41,-0.37,60.73,12.373,59.523809523809575
12394.0,3246.0,1440.0,0.0,0.0,0.0,0.0,0.0,3.0,0.23,-0.05,10.35,-0.03,0.01,0.0,26.31,1.41,-0.37,60.95,12.394,59.523809523809575
12415.0,0.0,-1806.0,0.0,0.0,0.0,0.0,0.0,3.0,0.24,-0.07,10.34,-0.03,0.01,0.01,26.32,1.42,-0.37,61.16,12.415,59.523809523809575
12436.0,100.0,-1706.0,0.0,0.0,0.0,0.0,0.0,3.0,0.24,-0.06,10.34,-0.03,0.01,0.0,26.32,1.42,-0.37,61.38,12.436,59.523809523809575
12457.0,0.0,-1806.0,0.0,0.0,0.0,0.0,0.0,3.0,0.22,-0.06,10.34,-0.03,0.01,0.0,26.31,1.43,-0.37,61.6,12.457,59.523809523809575
12478.0,1994.0,188.0,0.0,0.0,0.0,0.0,0.0,3.0,0.25,-0.04,10.35,-0.03,0.01,0.01,26.32,1.43,-0.37,61.82,12.478,59.523809523809575
12499.0,1949.0,143.0,0.0,0.0,0.0,0.0,0.0,3.0,0.25,-0.06,10.34,-0.03,0.01,0.01,26.32,1.44,-0.37,62.03,12.499,59.523809523809575
12520.0,2042.0,236.0,0.0,0.0,0.0,0.0,0.0,3.0,0.23,-0.07,10.33,-0.03,0.01,0.0,26.32,1.44,-0.37,62.25,12.52,59.523809523809575
12541.0,4045.0,2239.0,0.0,0.0,0.0,0.0,0.0,3.0,0.25,-0.08,10.33,-0.03,0.01,0.0,26.33,1.45,-0.38,62.47,12.541,59.523809523809575
12562.0,1952.0,146.0,0.0,0.0,0.0,0.0,0.0,3.0,0.24,-0.05,10.32,-0.03,0.01,0.0,26.32,1.45,-0.38,62.68,12.562,59.523809523809575
12583.0,4095.0,2289.0,0.0,0.0,0.0,0.0,0.0,3.0,0.24,-0.07,10.3,-0.03,0.01,0.0,26.34,1.46,-0.38,62.9,12.583,59.523809523809575
12604.0,1857.0,51.0,0.0,0.0,0.0,0.0,0.0,3.0,0.24,-0.06,10.32,-0.03,0.01,0.0,26.34,1.46,-0.38,63.12,12.604,59.523809523809575
12625.0,1767.0,-39.0,0.0,0.0,0.0,0.0,0.0,3.0,0.23,-0.08,10.3,-0.03,0.01,0.0,26.31,1.47,-0.38,63.33,12.625,59.523809523809575
12646.0,1786.0,-20.0,0.0,0.0,0.0,0.0,0.0,3.0,0.23,-0.07,10.34,-0.03,0.01,0.01,26.31,1.47,-0.38,63.55,12.646,59.523809523809575
12667.0,1894.0,88.0,0.0,0.0,0.0,0.0,0.0,3.0,0.24,-0.08,10.31,-0.03,0.01,0.01,26.31,1.48,-0.38,63.77,12.667,59.523809523809575
12688.0,1996.0,190.0,0.0,0.0,0.0,0.0,0.0,3.0,0.24,-0.05,10.34,-0.03,0.01,0.01,26.32,1.48,-0.39,63.98,12.688,124.22360248447191
12709.0,1902.0,96.0,0.0,0.0,0.0,0.0,0.0,3.0,0.24,-0.07,10.35,-0.03,0.01,0.0,26.32,1.49,-0.39,64.2,12.709,124.22360248447191
12730.0,1489.0,-317.0,0.0,0.0,0.0,0.0,0.0,3.0,0.23,-0.06,10.34,-0.03,0.01,0.0,26.32,1.49,-0.39,64.42,12.73,124.22360248447191
12751.0,4095.0,2289.0,0.0,0.0,0.0,0.0,0.0,3.0,0.24,-0.07,10.33,-0.03,0.01,0.0,26.31,1.5,-0.39,64.63,12.751,124.22360248447191
12772.0,2487.0,681.0,0.0,0.0,0.0,0.0,0.0,3.0,0.24,-0.07,10.32,-0.03,0.01,0.0,26.33,1.5,-0.39,64.85,12.772,124.22360248447191
12793.0,2061.0,255.0,0.0,0.0,0.0,0.0,0.0,3.0,0.23,-0.06,10.35,-0.03,0.01,0.0,26.33,1.51,-0.39,65.07,12.793,124.22360248447191
12814.0,1263.0,-543.0,0.0,0.0,0.0,0.0,0.0,3.0,0.22,-0.08,10.34,-0.03,0.01,0.0,26.32,1.51,-0.39,65.29,12.814,124.22360248447191
12835.0,1113.0,-693.0,0.0,0.0,0.0,0.0,0.0,3.0,0.22,-0.06,10.31,-0.03,0.01,0.0,26.32,1.52,-0.4,65.5,12.835,124.22360248447191
12856.0,2350.0,544.0,0.0,0.0,0.0,0.0,0.0,3.0,0.23,-0.07,10.31,-0.03,0.01,0.0,26.33,1.52,-0.4,65.72,12.856,124.22360248447191
12877.0,2642.0,836.0,0.0,0.0,0.0,0.0,0.0,3.0,0.23,-0.07,10.33,-0.03,0.01,0.0,26.34,1.53,-0.4,65.94,12.877,124.22360248447191
12898.0,1742.0,-64.0,0.0,0.0,0.0,0.0,0.0,3.0,0.24,-0.03,10.34,-0.03,0.01,0.0,26.34,1.53,-0.4,66.15,12.898,124.22360248447191
12919.0,4095.0,2289.0,0.0,0.0,0.0,0.0,0.0,3.0,0.24,-0.05,10.3,-0.03,0.01,0.01,26.32,1.54,-0.4,66.37,12.919,124.22360248447191
12940.0,3458.0,1652.0,0.0,0.0,0.0,0.0,0.0,3.0,0.24,-0.06,10.33,-0.03,0.01,0.01,26.32,1.54,-0.4,66.59,12.94,124.22360248447191
12961.0,804.0,-1002.0,0.0,0.0,0.0,0.0,0.0,3.0,0.23,-0.05,10.35,-0.03,0.01,0.01,26.33,1.55,-0.4,66.8,12.961,124.22360248447191
12982.0,1664.0,-142.0,0.0,0.0,0.0,0.0,0.0,3.0,0.24,-0.05,10.3,-0.03,0.01,0.0,26.31,1.55,-0.4,67.02,12.982,124.22360248447191
13003.0,1867.0,61.0,0.0,0.0,0.0,0.0,0.0,0.0,0.23,-0.04,10.32,-0.03,0.01,0.0,26.33,1.56,-0.4,67.24,13.003,124.22360248447191
13042.0,1461.0,-345.0,0.0,0.0,0.0,0.0,0.0,3.0,0.24,-0.06,10.33,-0.03,0.01,0.01,26.33,1.57,-0.41,67.64,13.042,124.22360248447191
13063.0,2197.0,391.0,0.0,0.0,0.0,0.0,0.0,3.0,0.23,-0.05,10.3,-0.03,0.01,0.0,26.33,1.57,-0.41,67.86,13.063,124.22360248447191
13084.0,624.0,-1182.0,0.0,0.0,0.0,0.0,0.0,3.0,0.25,-0.05,10.32,-0.03,0.01,0.0,26.32,1.58,-0.41,68.07,13.084,124.22360248447191
13105.0,2514.0,708.0,0.0,0.0,0.0,0.0,0.0,3.0,0.22,-0.07,10.32,-0.03,0.01,0.0,26.32,1.58,-0.41,68.29,13.105,124.22360248447191
13126.0,1493.0,-313.0,0.0,0.0,0.0,0.0,0.0,3.0,0.24,-0.07,10.32,-0.03,0.01,0.0,26.32,1.59,-0.41,68.51,13.126,160.0
13147.0,1117.0,-689.0,0.0,0.0,0.0,0.0,0.0,3.0,0.25,-0.07,10.31,-0.03,0.01,0.0,26.32,1.59,-0.41,68.72,13.147,160.0
13168.0,1602.0,-204.0,0.0,0.0,0.0,0.0,0.0,3.0,0.25,-0.06,10.32,-0.03,0.01,0.0,26.33,1.6,-0.41,68.94,13.168,160.0
13189.0,912.0,-894.0,0.0,0.0,0.0,0.0,0.0,3.0,0.24,-0.07,10.33,-0.03,0.01,0.01,26.34,1.6,-0.42,69.16,13.189,160.0
13210.0,1535.0,-271.0,0.0,0.0,0.0,0.0,0.0,3.0,0.23,-0.05,10.34,-0.03,0.01,0.0,26.34,1.61,-0.42,69.37,13.21,160.0
13231.0,2386.0,580.0,0.0,0.0,0.0,0.0,0.0,3.0,0.23,-0.06,10.33,-0.03,0.01,0.01,26.34,1.61,-0.42,69.59,13.231,160.0
13252.0,1872.0,66.0,0.0,0.0,0.0,0.0,0.0,3.0,0.23,-0.07,10.31,-0.03,0.01,0.0,26.32,1.62,-0.42,69.81,13.252,160.0
13273.0,1392.0,-414.0,0.0,0.0,0.0,0.0,0.0,3.0,0.25,-0.07,10.35,-0.03,0.01,0.0,26.34,1.62,-0.42,70.02,13.273,160.0
13294.0,3308.0,1502.0,0.0,0.0,0.0,0.0,0.0,3.0,0.24,-0.06,10.35,-0.03,0.01,0.0,26.32,1.63,-0.42,70.24,13.294,160.0
13315.0,3118.0,1312.0,0.0,0.0,0.0,0.0,0.0,3.0,0.24,-0.07,10.34,-0.03,0.01,0.01,26.33,1.63,-0.42,70.46,13.315,160.0
13336.0,1215.0,-591.0,0.0,0.0,0.0,0.0,0.0,3.0,0.24,-0.06,10.33,-0.03,0.01,0.0,26.32,1.64,-0.42,70.68,13.336,160.0
13357.0,1350.0,-456.0,0.0,0.0,0.0,0.0,0.0,3.0,0.25,-0.07,10.35,-0.03,0.01,0.0,26.33,1.64,-0.43,70.89,13.357,160.0
13378.0,3282.0,1476.0,0.0,0.0,0.0,0.0,0.0,3.0,0.23,-0.05,10.32,-0.03,0.01,0.0,26.33,1.65,-0.43,71.11,13.378,160.0
13399.0,1291.0,-515.0,0.0,0.0,0.0,0.0,0.0,3.0,0.23,-0.07,10.32,-0.03,0.01,0.01,26.33,1.65,-0.43,71.33,13.399,160.0
13420.0,2266.0,460.0,0.0,0.0,0.0,0.0,0.0,3.0,0.24,-0.05,10.32,-0.03,0.01,0.0,26.33,1.66,-0.43,71.54,13.42,160.0
13441.0,1934.0,128.0,0.0,0.0,0.0,0.0,0.0,3.0,0.24,-0.07,10.3,-0.03,0.01,0.0,26.34,1.66,-0.43,71.76,13.441,160.0
13462.0,1923.0,117.0,0.0,0.0,0.0,0.0,0.0,3.0,0.25,-0.05,10.34,-0.03,0.01,0.0,26.35,1.67,-0.43,71.98,13.462,160.0
13483.0,1923.0,117.0,0.0,0.0,0.0,0.0,0.0,3.0,0.25,-0.07,10.31,-0.03,0.01,0.0,26.34,1.67,-0.43,72.19,13.483,160.0
13504.0,1911.0,105.0,0.0,0.0,0.0,0.0,0.0,3.0,0.23,-0.06,10.32,-0.03,0.01,0.0,26.33,1.68,-0.44,72.41,13.504,160.0
13525.0,1933.0,127.0,0.0,0.0,0.0,0.0,0.0,3.0,0.24,-0.07,10.32,-0.03,0.01,0.0,26.34,1.68,-0.44,72.63,13.525,160.0
13546.0,1925.0,119.0,0.0,0.0,0.0,0.0,0.0,3.0,0.23,-0.06,10.35,-0.03,0.01,0.0,26.35,1.69,-0.44,72.84,13.546,160.0
13567.0,1941.0,135.0,0.0,0.0,0.0,0.0,0.0,3.0,0.23,-0.07,10.33,-0.03,0.01,0.0,26.34,1.69,-0.44,73.06,13.567,114.2857142857142
13588.0,1902.0,96.0,0.0,0.0,0.0,0.0,0.0,3.0,0.23,-0.08,10.33,-0.03,0.01,0.0,26.33,1.7,-0.44,73.28,13.588,114.2857142857142
13609.0,1917.0,111.0,0.0,0.0,0.0,0.0,0.0,3.0,0.25,-0.08,10.33,-0.03,0.01,0.0,26.34,1.7,-0.44,73.5,13.609,114.2857142857142
13630.0,1668.0,-138.0,0.0,0.0,0.0,0.0,0.0,3.0,0.24,-0.06,10.33,-0.03,0.01,0.01,26.32,1.71,-0.44,73.71,13.63,114.2857142857142
13651.0,2005.0,199.0,0.0,0.0,0.0,0.0,0.0,3.0,0.23,-0.05,10.36,-0.03,0.01,0.0,26.33,1.71,-0.45,73.93,13.651,114.2857142857142
13672.0,1863.0,57.0,0.0,0.0,0.0,0.0,0.0,3.0,0.25,-0.06,10.34,-0.03,0.01,0.0,26.33,1.72,-0.45,74.15,13.672,114.2857142857142
13693.0,1983.0,177.0,0.0,0.0,0.0,0.0,0.0,3.0,0.24,-0.06,10.31,-0.03,0.01,0.0,26.33,1.72,-0.45,74.36,13.693,114.2857142857142
13714.0,1865.0,59.0,0.0,0.0,0.0,0.0,0.0,3.0,0.23,-0.06,10.33,-0.03,0.01,0.01,26.32,1.73,-0.45,74.58,13.714,114.2857142857142
13735.0,1206.0,-600.0,0.0,0.0,0.0,0.0,0.0,3.0,0.24,-0.05,10.33,-0.03,0.01,0.01,26.32,1.73,-0.45,74.8,13.735,114.2857142857142
13756.0,991.0,-815.0,0.0,0.0,0.0,0.0,0.0,3.0,0.25,-0.05,10.32,-0.03,0.01,0.0,26.33,1.74,-0.45,75.01,13.756,114.2857142857142
13777.0,3858.0,2052.0,0.0,0.0,0.0,0.0,0.0,3.0,0.23,-0.07,10.32,-0.03,0.01,0.0,26.32,1.74,-0.45,75.23,13.777,114.2857142857142
13798.0,1074.0,-732.0,0.0,0.0,66.0,0.0,50.0,3.0,0.24,-0.06,10.34,-0.03,0.01,0.01,26.34,1.75,-0.45,75.45,13.798,114.2857142857142
13819.0,1742.0,-64.0,0.0,0.0,66.0,0.0,50.0,3.0,0.24,-0.06,10.32,-0.03,0.01,0.0,26.33,1.75,-0.46,75.67,13.819,114.2857142857142
13840.0,610.0,-1196.0,0.0,0.0,66.0,0.0,50.0,3.0,0.24,-0.05,10.33,-0.03,0.01,0.0,26.34,1.76,-0.46,75.88,13.84,114.2857142857142
13861.0,3814.0,2008.0,0.0,0.0,66.0,0.0,50.0,3.0,0.23,-0.06,10.32,-0.03,0.01,0.01,26.33,1.76,-0.46,76.1,13.861,114.2857142857142
13882.0,2253.0,447.0,0.0,0.0,66.0,0.0,50.0,3.0,0.23,-0.06,10.32,-0.03,0.01,0.0,26.34,1.77,-0.46,76.32,13.882,114.2857142857142
13903.0,2912.0,1106.0,0.0,0.0,66.0,0.0,50.0,3.0,0.24,-0.06,10.35,-0.03,0.01,0.0,26.33,1.77,-0.46,76.53,13.903,114.2857142857142
13924.0,1966.0,160.0,0.0,0.0,66.0,0.0,50.0,3.0,0.23,-0.06,10.37,-0.03,0.01,0.0,26.33,1.78,-0.46,76.75,13.924,114.2857142857142
13945.0,3018.0,1212.0,0.0,0.0,66.0,0.0,50.0,3.0,0.26,-0.06,10.32,-0.03,0.01,0.0,26.34,1.78,-0.46,76.97,13.945,114.2857142857142
13966.0,1002.0,-804.0,0.0,0.0,66.0,0.0,50.0,3.0,0.24,-0.06,10.34,-0.03,0.01,0.0,26.34,1.79,-0.46,77.18,13.966,114.2857142857142
13987.0,1492.0,-314.0,0.0,0.0,66.0,0.0,50.0,3.0,0.24,-0.07,10.34,-0.03,0.01,0.0,26.32,1.79,-0.47,77.4,13.987,114.2857142857142
14008.0,1872.0,66.0,0.0,0.0,66.0,0.0,50.0,3.0,0.24,-0.05,10.33,-0.03,0.01,0.0,26.34,1.8,-0.47,77.62,14.008,114.2857142857142
14029.0,1090.0,-716.0,0.0,0.0,66.0,0.0,50.0,3.0,0.24,-0.06,10.34,-0.03,0.01,0.0,26.34,1.8,-0.47,77.84,14.029,114.2857142857142
14050.0,2992.0,1186.0,0.0,0.0,66.0,0.0,50.0,3.0,0.24,-0.05,10.33,-0.03,0.01,0.0,26.33,1.81,-0.47,78.05,14.05,114.2857142857142
14071.0,0.0,-1806.0,0.0,0.0,66.0,0.0,50.0,3.0,0.23,-0.06,10.3,-0.03,0.01,0.0,26.35,1.81,-0.47,78.27,14.071,114.2857142857142
14092.0,4095.0,2289.0,0.0,0.0,66.0,0.0,50.0,3.0,0.23,-0.06,10.32,-0.03,0.01,0.0,26.33,1.82,-0.47,78.49,14.092,114.2857142857142
14113.0,2688.0,882.0,0.0,0.0,66.0,0.0,50.0,3.0,0.24,-0.07,10.36,-0.03,0.01,0.01,26.34,1.82,-0.47,78.7,14.113,105.82010582010612
14134.0,451.0,-1355.0,0.0,0.0,66.0,0.0,50.0,3.0,0.24,-0.07,10.33,-0.03,0.01,0.0,26.33,1.83,-0.47,78.92,14.134,105.82010582010612
14155.0,2843.0,1037.0,0.0,0.0,66.0,0.0,50.0,3.0,0.24,-0.07,10.34,-0.03,0.01,0.0,26.34,1.83,-0.48,79.14,14.155,105.82010582010612
14176.0,1721.0,-85.0,0.0,0.0,66.0,0.0,50.0,3.0,0.25,-0.07,10.35,-0.03,0.01,0.0,26.32,1.84,-0.48,79.35,14.176,105.82010582010612
14197.0,3605.0,1799.0,0.0,0.0,66.0,0.0,50.0,3.0,0.23,-0.08,10.32,-0.03,0.01,0.01,26.33,1.84,-0.48,79.57,14.197,105.82010582010612
14218.0,2448.0,642.0,0.0,0.0,66.0,0.0,50.0,3.0,0.25,-0.06,10.32,-0.03,0.01,0.01,26.32,1.85,-0.48,79.79,14.218,105.82010582010612
14239.0,1424.0,-382.0,0.0,0.0,66.0,0.0,50.0,3.0,0.23,-0.05,10.33,-0.03,0.01,0.01,26.33,1.85,-0.48,80.01,14.239,105.82010582010612
14260.0,1209.0,-597.0,0.0,0.0,66.0,0.0,50.0,3.0,0.23,-0.06,10.34,-0.03,0.01,0.0,26.34,1.86,-0.48,80.22,14.26,105.82010582010612
14281.0,2148.0,342.0,0.0,0.0,66.0,0.0,50.0,3.0,0.21,-0.06,10.31,-0.03,0.01,0.0,26.32,1.86,-0.48,80.44,14.281,105.82010582010612
14302.0,2505.0,699.0,0.0,0.0,66.0,0.0,50.0,3.0,0.23,-0.07,10.33,-0.03,0.01,0.0,26.32,1.87,-0.48,80.66,14.302,105.82010582010612
14323.0,2547.0,741.0,0.0,0.0,66.0,0.0,50.0,3.0,0.23,-0.07,10.34,-0.03,0.01,0.0,26.34,1.87,-0.49,80.87,14.323,105.82010582010612
14344.0,2079.0,273.0,0.0,0.0,66.0,0.0,50.0,3.0,0.26,-0.08,10.32,-0.03,0.01,0.0,26.33,1.88,-0.49,81.09,14.344,105.82010582010612
14365.0,503.0,-1303.0,0.0,0.0,66.0,0.0,50.0,3.0,0.24,-0.06,10.33,-0.03,0.01,0.0,26.32,1.88,-0.49,81.31,14.365,105.82010582010612
14386.0,535.0,-1271.0,0.0,0.0,66.0,0.0,50.0,3.0,0.24,-0.06,10.34,-0.03,0.01,0.0,26.31,1.89,-0.49,81.52,14.386,105.82010582010612
14407.0,0.0,-1806.0,0.0,0.0,66.0,0.0,50.0,3.0,0.24,-0.07,10.33,-0.03,0.01,0.0,26.34,1.89,-0.49,81.74,14.407,105.82010582010612
14428.0,3601.0,1795.0,0.0,0.0,66.0,0.0,50.0,3.0,0.25,-0.06,10.32,-0.03,0.01,0.0,26.36,1.9,-0.49,81.96,14.428,105.82010582010612
14449.0,981.0,-825.0,0.0,0.0,66.0,0.0,50.0,3.0,0.25,-0.07,10.31,-0.03,0.01,0.0,26.34,1.9,-0.49,82.17,14.449,105.82010582010612
14470.0,3205.0,1399.0,0.0,0.0,66.0,0.0,50.0,3.0,0.23,-0.05,10.33,-0.03,0.01,0.0,26.33,1.91,-0.5,82.39,14.47,105.82010582010612
14491.0,1520.0,-286.0,0.0,0.0,66.0,0.0,50.0,3.0,0.22,-0.07,10.32,-0.03,0.01,0.0,26.34,1.91,-0.5,82.61,14.491,105.82010582010612
14512.0,2482.0,676.0,0.0,0.0,66.0,0.0,50.0,3.0,0.23,-0.07,10.35,-0.03,0.01,0.0,26.34,1.92,-0.5,82.82,14.512,105.82010582010612
14533.0,2095.0,289.0,0.0,0.0,66.0,0.0,50.0,3.0,0.25,-0.05,10.33,-0.03,0.01,0.0,26.33,1.92,-0.5,83.04,14.533,105.82010582010612
14554.0,1456.0,-350.0,0.0,0.0,66.0,0.0,50.0,3.0,0.25,-0.07,10.34,-0.03,0.01,0.0,26.34,1.93,-0.5,83.26,14.554,105.82010582010612
14575.0,4095.0,2289.0,0.0,0.0,66.0,0.0,50.0,3.0,0.25,-0.08,10.33,-0.03,0.01,0.0,26.33,1.93,-0.5,83.48,14.575,105.82010582010612
14596.0,816.0,-990.0,0.0,0.0,66.0,0.0,50.0,3.0,0.24,-0.05,10.33,-0.03,0.01,0.0,26.32,1.94,-0.5,83.69,14.596,105.82010582010612
14617.0,240.0,-1566.0,0.0,0.0,66.0,0.0,50.0,3.0,0.26,-0.07,10.31,-0.03,0.01,0.0,26.33,1.94,-0.51,83.91,14.617,129.87012987012943
14638.0,1958.0,152.0,0.0,0.0,66.0,0.0,50.0,3.0,0.26,-0.07,10.32,-0.03,0.01,0.0,26.33,1.95,-0.51,84.13,14.638,129.87012987012943
14659.0,1929.0,123.0,0.0,0.0,66.0,0.0,50.0,3.0,0.24,-0.06,10.31,-0.03,0.01,0.0,26.34,1.95,-0.51,84.34,14.659,129.87012987012943
14680.0,1929.0,123.0,0.0,0.0,66.0,0.0,50.0,3.0,0.24,-0.07,10.3,-0.03,0.01,0.0,26.32,1.96,-0.51,84.56,14.68,129.87012987012943
14701.0,1927.0,121.0,0.0,0.0,66.0,0.0,50.0,3.0,0.25,-0.05,10.34,-0.03,0.01,0.01,26.33,1.96,-0.51,84.78,14.701,129.87012987012943
14722.0,1383.0,-423.0,0.0,0.0,66.0,0.0,50.0,3.0,0.23,-0.05,10.31,-0.03,0.01,0.0,26.31,1.97,-0.51,84.99,14.722,129.87012987012943
14743.0,4095.0,2289.0,0.0,0.0,66.0,0.0,50.0,3.0,0.25,-0.08,10.33,-0.03,0.01,0.0,26.33,1.97,-0.51,85.21,14.743,129.87012987012943
14764.0,0.0,-1806.0,0.0,0.0,66.0,0.0,50.0,3.0,0.23,-0.06,10.33,-0.03,0.01,0.0,26.34,1.98,-0.51,85.43,14.764,129.87012987012943
14785.0,4095.0,2289.0,0.0,0.0,66.0,0.0,50.0,3.0,0.23,-0.06,10.32,-0.03,0.01,0.0,26.32,1.98,-0.52,85.64,14.785,129.87012987012943
14806.0,2135.0,329.0,0.0,0.0,66.0,0.0,50.0,3.0,0.24,-0.07,10.31,-0.03,0.01,0.0,26.34,1.99,-0.52,85.86,14.806,129.87012987012943
14827.0,511.0,-1295.0,0.0,0.0,66.0,0.0,50.0,3.0,0.24,-0.08,10.33,-0.03,0.01,0.0,26.34,1.99,-0.52,86.08,14.827,129.87012987012943
14848.0,275.0,-1531.0,0.0,0.0,66.0,0.0,50.0,3.0,0.24,-0.06,10.35,-0.03,0.01,0.0,26.35,2.0,-0.52,86.29,14.848,129.87012987012943
14869.0,780.0,-1026.0,0.0,0.0,66.0,0.0,50.0,3.0,0.23,-0.07,10.3,-0.03,0.01,0.01,26.33,2.0,-0.52,86.51,14.869,129.87012987012943
14890.0,1949.0,143.0,0.0,0.0,66.0,0.0,50.0,3.0,0.24,-0.05,10.34,-0.03,0.01,0.0,26.34,2.01,-0.52,86.73,14.89,129.87012987012943
14911.0,1472.0,-334.0,0.0,0.0,66.0,0.0,50.0,3.0,0.23,-0.05,10.32,-0.03,0.01,0.01,26.31,2.01,-0.52,86.94,14.911,129.87012987012943
14932.0,2241.0,435.0,0.0,0.0,66.0,0.0,50.0,3.0,0.26,-0.08,10.31,-0.03,0.01,0.0,26.34,2.02,-0.53,87.16,14.932,129.87012987012943
14953.0,1805.0,-1.0,0.0,0.0,66.0,0.0,50.0,3.0,0.24,-0.07,10.35,-0.03,0.01,0.0,26.32,2.03,-0.53,87.38,14.953,129.87012987012943
14974.0,1402.0,-404.0,0.0,0.0,66.0,0.0,50.0,3.0,0.26,-0.07,10.33,-0.03,0.01,0.0,26.32,2.03,-0.53,87.6,14.974,129.87012987012943
14995.0,2031.0,225.0,0.0,0.0,66.0,0.0,50.0,3.0,0.23,-0.07,10.31,-0.03,0.01,0.0,26.32,2.04,-0.53,87.81,14.995,129.87012987012943
15016.0,2599.0,793.0,0.0,0.0,66.0,0.0,50.0,3.0,0.24,-0.06,10.31,-0.03,0.01,0.0,26.31,2.04,-0.53,88.03,15.016,129.87012987012943
15037.0,2770.0,964.0,0.0,0.0,66.0,0.0,50.0,3.0,0.23,-0.09,10.32,-0.03,0.01,0.01,26.32,2.05,-0.53,88.25,15.037,129.87012987012943
15058.0,4095.0,2289.0,0.0,0.0,66.0,0.0,50.0,3.0,0.24,-0.06,10.34,-0.03,0.01,0.0,26.32,2.05,-0.53,88.46,15.058,129.87012987012943
15079.0,4095.0,2289.0,1.0,0.0,66.0,0.0,50.0,3.0,0.24,-0.08,10.34,-0.03,0.01,0.0,26.32,2.06,-0.54,88.68,15.079,129.87012987012943
15100.0,4095.0,2289.0,1.0,0.0,66.0,0.0,50.0,3.0,0.25,-0.06,10.33,-0.03,0.01,0.0,26.32,2.06,-0.54,88.9,15.1,129.87012987012994
15121.0,4095.0,2289.0,0.0,0.0,66.0,0.0,50.0,3.0,0.24,-0.05,10.32,-0.03,0.01,0.0,26.32,2.07,-0.54,89.11,15.121,129.87012987012994
15142.0,4095.0,2289.0,0.0,0.0,66.0,0.0,50.0,3.0,0.25,-0.07,10.32,-0.03,0.01,0.0,26.33,2.07,-0.54,89.33,15.142,129.87012987012994
15163.0,2603.0,797.0,0.0,0.0,66.0,0.0,50.0,3.0,0.25,-0.05,10.31,-0.03,0.01,0.0,26.33,2.08,-0.54,89.55,15.163,129.87012987012994
15184.0,2860.0,1054.0,0.0,0.0,66.0,0.0,50.0,3.0,0.24,-0.03,10.34,-0.03,0.01,0.0,26.33,2.08,-0.54,89.76,15.184,129.87012987012994
15205.0,0.0,-1806.0,0.0,0.0,66.0,0.0,50.0,3.0,0.24,-0.08,10.33,-0.03,0.01,0.0,26.33,2.09,-0.54,89.98,15.205,129.87012987012994
15226.0,2559.0,753.0,0.0,0.0,66.0,0.0,50.0,3.0,0.23,-0.06,10.29,-0.03,0.01,0.0,26.32,2.09,-0.54,90.2,15.226,129.87012987012994
15247.0,2224.0,418.0,0.0,0.0,66.0,0.0,50.0,3.0,0.23,-0.06,10.34,-0.03,0.01,0.0,26.33,2.1,-0.55,90.41,15.247,129.87012987012994
15268.0,2289.0,483.0,0.0,0.0,66.0,0.0,50.0,3.0,0.24,-0.05,10.34,-0.03,0.01,0.0,26.33,2.1,-0.55,90.63,15.268,129.87012987012994
15289.0,2206.0,400.0,0.0,0.0,66.0,0.0,50.0,3.0,0.24,-0.05,10.3,-0.03,0.01,0.0,26.34,2.11,-0.55,90.85,15.289,129.87012987012994
15310.0,4095.0,2289.0,0.0,0.0,66.0,0.0,50.0,3.0,0.24,-0.08,10.33,-0.03,0.01,0.0,26.34,2.11,-0.55,91.06,15.31,129.87012987012994
15331.0,4095.0,2289.0,0.0,0.0,66.0,0.0,50.0,3.0,0.24,-0.08,10.33,-0.03,0.01,0.01,26.33,2.12,-0.55,91.28,15.331,129.87012987012994
15352.0,1812.0,6.0,0.0,0.0,66.0,0.0,50.0,3.0,0.24,-0.07,10.32,-0.03,0.01,0.0,26.33,2.12,-0.55,91.5,15.352,129.87012987012994
15373.0,4095.0,2289.0,1.0,0.0,66.0,0.0,50.0,3.0,0.24,-0.08,10.35,-0.03,0.01,0.0,26.34,2.13,-0.55,91.72,15.373,129.87012987012994
15394.0,4095.0,2289.0,1.0,0.0,66.0,0.0,50.0,3.0,0.24,-0.08,10.33,-0.03,0.01,0.0,26.33,2.13,-0.56,91.93,15.394,129.87012987012994
15415.0,4095.0,2289.0,1.0,0.0,66.0,0.0,50.0,3.0,0.23,-0.06,10.3,-0.03,0.01,0.0,26.32,2.14,-0.56,92.15,15.415,129.87012987012994
15436.0,4095.0,2289.0,0.0,0.0,66.0,0.0,50.0,3.0,0.23,-0.06,10.35,-0.03,0.01,0.0,26.33,2.14,-0.56,92.37,15.436,129.87012987012994
15457.0,4095.0,2289.0,0.0,0.0,66.0,0.0,50.0,3.0,0.24,-0.06,10.34,-0.03,0.01,0.0,26.34,2.15,-0.56,92.58,15.457,129.87012987012994
15478.0,4095.0,2289.0,0.0,0.0,66.0,0.0,50.0,3.0,0.24,-0.06,10.34,-0.03,0.01,0.0,26.33,2.15,-0.56,92.8,15.478,129.87012987012994
15499.0,4071.0,2265.0,0.0,0.0,66.0,0.0,50.0,3.0,0.22,-0.05,10.34,-0.03,0.01,0.0,26.34,2.16,-0.56,93.02,15.499,178.5714285714284
15520.0,1456.0,-350.0,0.0,0.0,66.0,0.0,50.0,3.0,0.23,-0.06,10.32,-0.03,0.01,0.01,26.35,2.16,-0.56,93.23,15.52,178.5714285714284
15541.0,1994.0,188.0,0.0,0.0,66.0,0.0,50.0,3.0,0.24,-0.07,10.33,-0.03,0.01,0.01,26.33,2.17,-0.56,93.45,15.541,178.5714285714284
15562.0,0.0,-1806.0,0.0,0.0,66.0,0.0,50.0,3.0,0.25,-0.07,10.32,-0.03,0.01,0.0,26.33,2.17,-0.57,93.67,15.562,178.5714285714284
15583.0,4095.0,2289.0,0.0,0.0,66.0,0.0,50.0,3.0,0.24,-0.07,10.29,-0.03,0.01,0.0,26.33,2.18,-0.57,93.88,15.583,178.5714285714284
15604.0,144.0,-1662.0,0.0,0.0,66.0,0.0,50.0,3.0,0.22,-0.06,10.31,-0.03,0.01,0.01,26.33,2.18,-0.57,94.1,15.604,178.5714285714284
15625.0,4095.0,2289.0,0.0,0.0,66.0,0.0,50.0,3.0,0.23,-0.09,10.33,-0.03,0.01,0.0,26.33,2.19,-0.57,94.32,15.625,178.5714285714284
15646.0,4095.0,2289.0,1.0,0.0,66.0,0.0,50.0,3.0,0.26,-0.06,10.34,-0.03,0.01,0.0,26.35,2.19,-0.57,94.53,15.646,178.5714285714284
15667.0,4095.0,2289.0,0.0,0.0,66.0,0.0,50.0,3.0,0.24,-0.06,10.34,-0.03,0.01,0.0,26.34,2.2,-0.57,94.75,15.667,178.5714285714284
15688.0,2380.0,574.0,0.0,0.0,66.0,0.0,50.0,3.0,0.25,-0.07,10.31,-0.03,0.01,0.0,26.33,2.2,-0.57,94.97,15.688,178.5714285714284
15709.0,1765.0,-41.0,0.0,0.0,66.0,0.0,50.0,3.0,0.24,-0.07,10.32,-0.03,0.01,0.0,26.34,2.21,-0.58,95.19,15.709,178.5714285714284
15730.0,2673.0,867.0,0.0,0.0,66.0,0.0,50.0,3.0,0.23,-0.06,10.31,-0.03,0.01,0.0,26.32,2.21,-0.58,95.4,15.73,178.5714285714284
15751.0,1168.0,-638.0,0.0,0.0,0.0,0.0,0.0,3.0,0.24,-0.07,10.35,-0.03,0.01,0.0,26.32,2.22,-0.58,95.62,15.751,178.5714285714284
15772.0,963.0,-843.0,0.0,0.0,0.0,0.0,0.0,3.0,0.24,-0.06,10.35,-0.03,0.01,0.0,26.34,2.22,-0.58,95.84,15.772,178.5714285714284
15793.0,1828.0,22.0,0.0,0.0,0.0,0.0,0.0,3.0,0.23,-0.06,10.32,-0.03,0.01,0.01,26.34,2.23,-0.58,96.05,15.793,178.5714285714284
15814.0,969.0,-837.0,0.0,0.0,0.0,0.0,0.0,3.0,0.23,-0.06,10.31,-0.03,0.01,0.0,26.33,2.23,-0.58,96.27,15.814,178.5714285714284
15835.0,1773.0,-33.0,0.0,0.0,0.0,0.0,0.0,3.0,0.23,-0.05,10.34,-0.03,0.01,0.0,26.33,2.24,-0.58,96.49,15.835,178.5714285714284
15856.0,1776.0,-30.0,0.0,0.0,0.0,0.0,0.0,3.0,0.26,-0.06,10.32,-0.03,0.01,0.0,26.33,2.24,-0.59,96.7,15.856,178.5714285714284
15877.0,2258.0,452.0,0.0,0.0,0.0,0.0,0.0,3.0,0.25,-0.06,10.33,-0.03,0.01,0.0,26.33,2.25,-0.59,96.92,15.877,178.5714285714284
15898.0,150.0,-1656.0,0.0,0.0,0.0,0.0,0.0,3.0,0.24,-0.05,10.36,-0.03,0.01,0.01,26.33,2.25,-0.59,97.14,15.898,178.5714285714284
15919.0,2351.0,545.0,0.0,0.0,0.0,0.0,0.0,3.0,0.24,-0.06,10.33,-0.03,0.01,0.0,26.32,2.26,-0.59,97.36,15.919,178.5714285714284
15940.0,2881.0,1075.0,0.0,0.0,0.0,0.0,0.0,3.0,0.25,-0.06,10.33,-0.03,0.01,0.01,26.34,2.26,-0.59,97.57,15.94,178.5714285714284
15961.0,0.0,-1806.0,0.0,0.0,0.0,0.0,0.0,3.0,0.24,-0.07,10.32,-0.03,0.01,0.01,26.34,2.27,-0.59,97.79,15.961,178.5714285714284
15982.0,698.0,-1108.0,0.0,0.0,0.0,0.0,0.0,3.0,0.25,-0.06,10.32,-0.03,0.01,0.0,26.33,2.27,-0.59,98.01,15.982,178.5714285714284
16003.0,3360.0,1554.0,0.0,0.0,0.0,0.0,0.0,3.0,0.23,-0.06,10.35,-0.03,0.01,0.0,26.33,2.28,-0.59,98.22,16.003,84.38818565400861
16024.0,2097.0,291.0,0.0,0.0,0.0,0.0,0.0,3.0,0.23,-0.06,10.34,-0.03,0.01,0.01,26.33,2.28,-0.59,98.44,16.024,84.38818565400861
16045.0,1535.0,-271.0,0.0,0.0,0.0,0.0,0.0,3.0,0.24,-0.08,10.34,-0.03,0.01,0.0,26.35,2.29,-0.6,98.66,16.045,84.38818565400861
16066.0,2102.0,296.0,0.0,0.0,0.0,0.0,0.0,3.0,0.25,-0.08,10.33,-0.03,0.01,0.01,26.33,2.29,-0.6,98.87,16.066,84.38818565400861
16087.0,2031.0,225.0,0.0,0.0,0.0,0.0,0.0,3.0,0.25,-0.06,10.34,-0.03,0.01,0.0,26.34,2.3,-0.6,99.09,16.087,84.38818565400861
16108.0,945.0,-861.0,0.0,0.0,0.0,0.0,0.0,3.0,0.25,-0.08,10.33,-0.03,0.01,0.01,26.34,2.3,-0.6,99.31,16.108,84.38818565400861
16129.0,3345.0,1539.0,0.0,0.0,0.0,0.0,0.0,3.0,0.23,-0.06,10.31,-0.03,0.01,0.0,26.34,2.31,-0.6,99.53,16.129,84.38818565400861
16150.0,2763.0,957.0,0.0,0.0,0.0,0.0,0.0,3.0,0.24,-0.06,10.3,-0.03,0.01,0.0,26.33,2.31,-0.6,99.74,16.15,84.38818565400861
16171.0,2619.0,813.0,0.0,0.0,0.0,0.0,0.0,3.0,0.24,-0.06,10.32,-0.03,0.01,0.0,26.33,2.32,-0.6,99.96,16.171,84.38818565400861
16192.0,2761.0,955.0,0.0,0.0,0.0,0.0,0.0,3.0,0.26,-0.08,10.33,-0.03,0.01,0.0,26.33,2.32,-0.61,100.18,16.192,84.38818565400861
16213.0,4095.0,2289.0,0.0,0.0,0.0,0.0,0.0,3.0,0.23,-0.05,10.33,-0.03,0.01,0.01,26.36,2.33,-0.61,100.39,16.213,84.38818565400861
16234.0,2091.0,285.0,0.0,0.0,0.0,0.0,0.0,3.0,0.24,-0.06,10.34,-0.03,0.01,0.0,26.34,2.33,-0.61,100.61,16.234,84.38818565400861
16255.0,2807.0,1001.0,0.0,0.0,0.0,0.0,0.0,3.0,0.23,-0.07,10.33,-0.03,0.01,0.0,26.34,2.34,-0.61,100.83,16.255,84.38818565400861
16276.0,1521.0,-285.0,0.0,0.0,0.0,0.0,0.0,0.0,0.24,-0.07,10.37,-0.03,0.01,0.0,26.32,2.34,-0.61,101.04,16.276,84.38818565400861
16315.0,2761.0,955.0,0.0,0.0,0.0,0.0,0.0,3.0,0.25,-0.06,10.31,-0.03,0.01,0.0,26.34,2.35,-0.61,101.45,16.315,84.38818565400861
16336.0,183.0,-1623.0,0.0,0.0,0.0,0.0,0.0,3.0,0.23,-0.06,10.35,-0.03,0.01,0.01,26.34,2.36,-0.62,101.66,16.336,84.38818565400861
16357.0,866.0,-940.0,0.0,0.0,0.0,0.0,0.0,3.0,0.22,-0.08,10.31,-0.03,0.01,0.01,26.33,2.36,-0.62,101.88,16.357,84.38818565400861
16378.0,0.0,-1806.0,0.0,0.0,0.0,0.0,0.0,3.0,0.23,-0.06,10.35,-0.03,0.01,0.01,26.33,2.37,-0.62,102.1,16.378,84.38818565400861
16399.0,2501.0,695.0,0.0,0.0,0.0,0.0,0.0,3.0,0.23,-0.06,10.33,-0.03,0.01,0.0,26.32,2.37,-0.62,102.31,16.399,84.38818565400861
16420.0,4095.0,2289.0,0.0,0.0,0.0,0.0,0.0,3.0,0.24,-0.09,10.31,-0.03,0.01,0.0,26.33,2.38,-0.62,102.53,16.42,84.38818565400861
16441.0,4095.0,2289.0,1.0,0.0,0.0,0.0,0.0,3.0,0.25,-0.06,10.33,-0.03,0.01,0.0,26.33,2.38,-0.62,102.75,16.441,84.38818565400861
16462.0,4095.0,2289.0,1.0,0.0,0.0,0.0,0.0,3.0,0.24,-0.06,10.31,-0.03,0.01,0.0,26.31,2.39,-0.62,102.97,16.462,84.38818565400861
16483.0,4095.0,2289.0,1.0,0.0,0.0,0.0,0.0,3.0,0.25,-0.07,10.32,-0.03,0.01,0.0,26.34,2.39,-0.63,103.18,16.483,84.38818565400861
16504.0,4095.0,2289.0,1.0,0.0,0.0,0.0,0.0,3.0,0.25,-0.07,10.36,-0.03,0.01,0.0,26.34,2.4,-0.63,103.4,16.504,84.38818565400861
16525.0,4095.0,2289.0,1.0,0.0,0.0,0.0,0.0,3.0,0.24,-0.06,10.32,-0.03,0.01,0.0,26.34,2.4,-0.63,103.62,16.525,84.38818565400861
16546.0,4095.0,2289.0,1.0,0.0,0.0,0.0,0.0,3.0,0.26,-0.06,10.3,-0.03,0.01,0.0,26.34,2.41,-0.63,103.83,16.546,84.38818565400861
16567.0,4095.0,2289.0,1.0,0.0,0.0,0.0,0.0,3.0,0.26,-0.06,10.34,-0.03,0.01,0.0,26.32,2.41,-0.63,104.05,16.567,84.38818565400861
16588.0,4095.0,2289.0,1.0,0.0,0.0,0.0,0.0,3.0,0.25,-0.06,10.35,-0.03,0.01,0.01,26.34,2.42,-0.63,104.27,16.588,84.38818565400861
16609.0,4095.0,2289.0,1.0,0.0,0.0,0.0,0.0,3.0,0.24,-0.06,10.34,-0.03,0.01,0.01,26.34,2.43,-0.63,104.48,16.609,84.38818565400861
16630.0,4095.0,2289.0,1.0,0.0,0.0,0.0,0.0,3.0,0.24,-0.05,10.36,-0.03,0.01,0.0,26.33,2.43,-0.63,104.7,16.63,84.38818565400861
16651.0,4095.0,2289.0,1.0,0.0,0.0,0.0,0.0,3.0,0.23,-0.06,10.35,-0.03,0.01,0.0,26.34,2.44,-0.64,104.92,16.651,84.38818565400861
16672.0,4095.0,2289.0,1.0,0.0,0.0,0.0,0.0,3.0,0.25,-0.05,10.37,-0.03,0.01,0.0,26.32,2.44,-0.64,105.14,16.672,84.38818565400861
16693.0,4095.0,2289.0,1.0,0.0,0.0,0.0,0.0,3.0,0.25,-0.07,10.33,-0.03,0.01,0.0,26.34,2.45,-0.64,105.35,16.693,84.38818565400861
16714.0,4095.0,2289.0,1.0,0.0,0.0,0.0,0.0,3.0,0.23,-0.06,10.33,-0.03,0.01,0.0,26.32,2.45,-0.64,105.57,16.714,84.38818565400861
16735.0,4095.0,2289.0,1.0,0.0,0.0,0.0,0.0,3.0,0.24,-0.08,10.33,-0.03,0.01,0.0,26.32,2.46,-0.64,105.79,16.735,84.38818565400861
16756.0,4095.0,2289.0,1.0,0.0,0.0,0.0,0.0,3.0,0.25,-0.07,10.33,-0.03,0.01,0.01,26.34,2.46,-0.64,106.0,16.756,84.38818565400861
16777.0,4095.0,2289.0,1.0,0.0,0.0,0.0,0.0,3.0,0.24,-0.08,10.34,-0.03,0.01,0.0,26.32,2.47,-0.64,106.22,16.777,84.38818565400861
16798.0,4095.0,2289.0,1.0,0.0,0.0,0.0,0.0,3.0,0.25,-0.04,10.34,-0.03,0.01,0.0,26.33,2.47,-0.65,106.44,16.798,84.38818565400861
16819.0,4095.0,2289.0,1.0,0.0,0.0,0.0,0.0,3.0,0.24,-0.07,10.33,-0.03,0.01,0.0,26.32,2.48,-0.65,106.66,16.819,84.38818565400861
16840.0,4095.0,2289.0,1.0,0.0,0.0,0.0,0.0,3.0,0.25,-0.03,10.32,-0.03,0.01,0.0,26.33,2.48,-0.65,106.87,16.84,84.38818565400861
16861.0,4095.0,2289.0,1.0,0.0,0.0,0.0,0.0,3.0,0.24,-0.07,10.36,-0.03,0.01,0.0,26.32,2.49,-0.65,107.09,16.861,84.38818565400861
16882.0,4095.0,2289.0,1.0,0.0,0.0,0.0,0.0,3.0,0.23,-0.06,10.32,-0.03,0.01,0.0,26.33,2.49,-0.65,107.31,16.882,84.38818565400861
16903.0,4095.0,2289.0,1.0,0.0,0.0,0.0,0.0,3.0,0.26,-0.05,10.33,-0.03,0.01,0.0,26.33,2.5,-0.65,107.52,16.903,84.38818565400861
16924.0,4095.0,2289.0,1.0,0.0,0.0,0.0,0.0,3.0,0.23,-0.06,10.31,-0.03,0.01,0.0,26.35,2.5,-0.65,107.74,16.924,84.38818565400861
16945.0,4095.0,2289.0,1.0,0.0,0.0,0.0,0.0,3.0,0.23,-0.05,10.34,-0.03,0.01,0.0,26.33,2.51,-0.65,107.96,16.945,84.38818565400861
16966.0,4095.0,2289.0,1.0,0.0,0.0,0.0,0.0,3.0,0.24,-0.06,10.34,-0.03,0.01,0.0,26.34,2.51,-0.65,108.17,16.966,84.38818565400861
16987.0,4095.0,2289.0,1.0,0.0,0.0,0.0,0.0,3.0,0.23,-0.06,10.32,-0.03,0.01,0.0,26.32,2.52,-0.66,108.39,16.987,84.38818565400861
17008.0,4095.0,2289.0,1.0,0.0,0.0,0.0,0.0,3.0,0.23,-0.07,10.32,-0.03,0.01,0.0,26.33,2.52,-0.66,108.61,17.008,84.38818565400861
17029.0,4095.0,2289.0,1.0,0.0,0.0,0.0,0.0,3.0,0.22,-0.06,10.34,-0.03,0.01,0.01,26.33,2.53,-0.66,108.82,17.029,84.38818565400861
17050.0,4095.0,2289.0,1.0,0.0,0.0,0.0,0.0,3.0,0.24,-0.06,10.3,-0.03,0.01,0.0,26.33,2.53,-0.66,109.04,17.05,84.38818565400861
17071.0,4095.0,2289.0,1.0,0.0,0.0,0.0,0.0,3.0,0.23,-0.07,10.32,-0.03,0.01,0.0,26.33,2.54,-0.66,109.26,17.071,84.38818565400861
17092.0,4095.0,2289.0,1.0,0.0,0.0,0.0,0.0,3.0,0.23,-0.05,10.35,-0.03,0.01,0.0,26.34,2.54,-0.66,109.47,17.092,84.38818565400861
17113.0,4095.0,2289.0,1.0,0.0,0.0,0.0,0.0,3.0,0.24,-0.08,10.34,-0.03,0.01,0.0,26.33,2.55,-0.66,109.69,17.113,84.38818565400861
17134.0,4095.0,2289.0,1.0,0.0,0.0,0.0,0.0,3.0,0.23,-0.06,10.33,-0.03,0.01,0.0,26.32,2.55,-0.66,109.91,17.134,84.38818565400861
17155.0,4095.0,2289.0,1.0,0.0,0.0,0.0,0.0,3.0,0.23,-0.07,10.31,-0.03,0.01,0.0,26.31,2.56,-0.67,110.13,17.155,84.38818565400861
17176.0,4095.0,2289.0,1.0,0.0,0.0,0.0,0.0,3.0,0.25,-0.04,10.29,-0.03,0.01,0.0,26.33,2.56,-0.67,110.34,17.176,84.38818565400861
17197.0,4095.0,2289.0,1.0,0.0,0.0,0.0,0.0,3.0,0.24,-0.06,10.31,-0.03,0.01,0.0,26.32,2.57,-0.67,110.56,17.197,84.38818565400861
17218.0,4095.0,2289.0,1.0,0.0,0.0,0.0,0.0,3.0,0.23,-0.07,10.35,-0.03,0.01,0.0,26.32,2.57,-0.67,110.78,17.218,84.38818565400861
17239.0,4095.0,2289.0,1.0,0.0,0.0,0.0,0.0,3.0,0.25,-0.06,10.32,-0.03,0.01,0.0,26.34,2.58,-0.67,110.99,17.239,84.38818565400861
17260.0,4095.0,2289.0,1.0,0.0,0.0,0.0,0.0,3.0,0.23,-0.06,10.31,-0.03,0.01,0.0,26.34,2.58,-0.67,111.21,17.26,84.38818565400861
17281.0,4095.0,2289.0,1.0,0.0,0.0,0.0,0.0,3.0,0.23,-0.06,10.34,-0.03,0.01,0.0,26.34,2.59,-0.67,111.43,17.281,84.38818565400861
17302.0,4095.0,2289.0,1.0,0.0,0.0,0.0,0.0,3.0,0.25,-0.08,10.3,-0.03,0.01,0.0,26.34,2.59,-0.67,111.64,17.302,84.38818565400861
17323.0,4095.0,2289.0,1.0,0.0,0.0,0.0,0.0,3.0,0.25,-0.06,10.34,-0.03,0.01,0.0,26.33,2.6,-0.68,111.86,17.323,84.38818565400861
17344.0,4095.0,2289.0,1.0,0.0,0.0,0.0,0.0,3.0,0.25,-0.06,10.31,-0.03,0.01,0.0,26.32,2.6,-0.68,112.08,17.344,84.38818565400861
17365.0,4095.0,2289.0,1.0,0.0,0.0,0.0,0.0,3.0,0.24,-0.07,10.32,-0.03,0.01,0.01,26.33,2.61,-0.68,112.29,17.365,84.38818565400861
17386.0,4095.0,2289.0,1.0,0.0,0.0,0.0,0.0,3.0,0.23,-0.07,10.32,-0.03,0.01,0.01,26.33,2.61,-0.68,112.51,17.386,84.38818565400861
17407.0,4095.0,2289.0,1.0,0.0,0.0,0.0,0.0,3.0,0.23,-0.07,10.33,-0.03,0.01,0.0,26.34,2.62,-0.68,112.73,17.407,84.38818565400861
17428.0,4095.0,2289.0,1.0,0.0,0.0,0.0,0.0,3.0,0.23,-0.07,10.32,-0.03,0.01,0.0,26.32,2.62,-0.68,112.94,17.428,84.38818565400861
17449.0,4095.0,2289.0,1.0,0.0,0.0,0.0,0.0,3.0,0.23,-0.05,10.32,-0.03,0.01,0.0,26.34,2.63,-0.68,113.16,17.449,84.38818565400861
17470.0,4095.0,2289.0,1.0,0.0,0.0,0.0,0.0,3.0,0.24,-0.07,10.34,-0.03,0.01,0.0,26.31,2.63,-0.69,113.38,17.47,84.38818565400861
17491.0,4095.0,2289.0,1.0,0.0,0.0,0.0,0.0,3.0,0.24,-0.07,10.33,-0.03,0.01,0.0,26.33,2.64,-0.69,113.59,17.491,84.38818565400861
17512.0,4095.0,2289.0,1.0,0.0,0.0,0.0,0.0,3.0,0.23,-0.08,10.36,-0.03,0.01,0.0,26.34,2.64,-0.69,113.81,17.512,84.38818565400861
17533.0,4095.0,2289.0,1.0,0.0,0.0,0.0,0.0,3.0,0.24,-0.06,10.34,-0.03,0.01,0.0,26.32,2.65,-0.69,114.03,17.533,84.38818565400861
17554.0,4095.0,2289.0,1.0,0.0,0.0,0.0,0.0,3.0,0.25,-0.06,10.32,-0.03,0.01,0.0,26.31,2.65,-0.69,114.25,17.554,84.38818565400861
17575.0,4095.0,2289.0,1.0,0.0,0.0,0.0,0.0,3.0,0.25,-0.06,10.3,-0.03,0.01,0.0,26.32,2.66,-0.69,114.46,17.575,84.38818565400861
17596.0,4095.0,2289.0,1.0,0.0,0.0,0.0,0.0,3.0,0.23,-0.06,10.34,-0.03,0.01,0.0,26.34,2.66,-0.69,114.68,17.596,84.38818565400861
17617.0,4095.0,2289.0,1.0,0.0,0.0,0.0,0.0,3.0,0.27,-0.09,10.34,-0.03,0.01,0.0,26.33,2.67,-0.7,114.9,17.617,84.38818565400861
17638.0,4095.0,2289.0,1.0,0.0,0.0,0.0,0.0,3.0,0.23,-0.07,10.34,-0.03,0.01,0.01,26.34,2.67,-0.7,115.11,17.638,84.38818565400861
17659.0,4095.0,2289.0,1.0,0.0,0.0,0.0,0.0,3.0,0.24,-0.04,10.34,-0.03,0.01,0.0,26.34,2.68,-0.7,115.33,17.659,84.38818565400861
17680.0,4095.0,2289.0,1.0,0.0,66.0,97.0,49.0,3.0,0.23,-0.06,10.35,-0.03,0.01,0.0,26.33,2.68,-0.7,115.55,17.68,84.38818565400861
17701.0,4095.0,2289.0,1.0,0.0,66.0,97.0,49.0,3.0,0.23,-0.06,10.33,-0.03,0.01,0.0,26.34,2.69,-0.7,115.76,17.701,84.38818565400861
17722.0,4095.0,2289.0,1.0,0.0,66.0,97.0,49.0,3.0,0.25,-0.06,10.32,-0.03,0.01,0.0,26.32,2.69,-0.7,115.98,17.722,84.38818565400861
17743.0,4095.0,2289.0,1.0,0.0,66.0,97.0,49.0,3.0,0.24,-0.06,10.35,-0.03,0.01,0.0,26.33,2.7,-0.7,116.2,17.743,84.38818565400861
17764.0,4095.0,2289.0,1.0,0.0,66.0,97.0,49.0,3.0,0.24,-0.07,10.33,-0.03,0.01,0.0,26.32,2.7,-0.7,116.42,17.764,84.38818565400861
17785.0,4095.0,2289.0,1.0,0.0,66.0,97.0,49.0,3.0,0.24,-0.06,10.31,-0.03,0.01,0.0,26.32,2.71,-0.71,116.63,17.785,84.38818565400861
17806.0,4095.0,2289.0,1.0,0.0,66.0,97.0,49.0,3.0,0.24,-0.05,10.34,-0.03,0.01,0.01,26.31,2.71,-0.71,116.85,17.806,84.38818565400861
17827.0,4095.0,2289.0,1.0,0.0,66.0,97.0,49.0,3.0,0.24,-0.06,10.35,-0.03,0.01,0.01,26.33,2.72,-0.71,117.07,17.827,84.38818565400861
17848.0,4095.0,2289.0,1.0,0.0,66.0,97.0,49.0,3.0,0.24,-0.08,10.31,-0.03,0.01,0.01,26.33,2.72,-0.71,117.28,17.848,84.38818565400861
17869.0,4095.0,2289.0,1.0,0.0,66.0,97.0,49.0,3.0,0.24,-0.04,10.28,-0.03,0.01,0.01,26.33,2.73,-0.71,117.5,17.869,84.38818565400861
17890.0,4095.0,2289.0,1.0,0.0,66.0,97.0,49.0,3.0,0.23,-0.06,10.35,-0.03,0.01,0.0,26.32,2.73,-0.71,117.72,17.89,84.38818565400861
17911.0,4095.0,2289.0,1.0,0.0,66.0,97.0,49.0,3.0,0.24,-0.07,10.34,-0.03,0.01,0.0,26.31,2.74,-0.71,117.93,17.911,84.38818565400861
17932.0,4095.0,2289.0,1.0,0.0,66.0,97.0,49.0,3.0,0.26,-0.07,10.33,-0.03,0.01,0.0,26.32,2.74,-0.71,118.15,17.932,84.38818565400861
17953.0,4095.0,2289.0,1.0,0.0,66.0,97.0,49.0,3.0,0.25,-0.05,10.33,-0.03,0.01,0.0,26.32,2.75,-0.72,118.37,17.953,84.38818565400861
17974.0,4095.0,2289.0,1.0,0.0,66.0,97.0,49.0,3.0,0.24,-0.04,10.34,-0.03,0.01,0.0,26.34,2.75,-0.72,118.58,17.974,84.38818565400861
17995.0,4095.0,2289.0,1.0,0.0,66.0,97.0,49.0,3.0,0.25,-0.07,10.33,-0.03,0.01,0.0,26.34,2.76,-0.72,118.8,17.995,84.38818565400861
18016.0,4095.0,2289.0,1.0,0.0,66.0,97.0,49.0,3.0,0.25,-0.08,10.33,-0.03,0.01,0.0,26.32,2.76,-0.72,119.02,18.016,84.38818565400861
18037.0,4095.0,2289.0,1.0,0.0,66.0,97.0,48.0,3.0,0.24,-0.08,10.32,-0.03,0.01,0.0,26.34,2.77,-0.72,119.24,18.037,84.38818565400861
18058.0,4095.0,2289.0,1.0,0.0,66.0,97.0,48.0,3.0,0.23,-0.07,10.34,-0.03,0.01,0.0,26.32,2.77,-0.72,119.45,18.058,84.38818565400861
18079.0,4095.0,2289.0,1.0,0.0,66.0,97.0,48.0,3.0,0.23,-0.06,10.32,-0.03,0.01,0.0,26.33,2.78,-0.72,119.67,18.079,84.38818565400861
18100.0,4095.0,2289.0,1.0,0.0,66.0,97.0,48.0,3.0,0.23,-0.08,10.32,-0.03,0.01,0.0,26.31,2.78,-0.73,119.89,18.1,84.38818565400861
18121.0,4095.0,2289.0,1.0,0.0,66.0,97.0,48.0,3.0,0.25,-0.06,10.36,-0.03,0.01,0.01,26.32,2.79,-0.73,120.1,18.121,84.38818565400861
18142.0,4095.0,2289.0,1.0,0.0,66.0,97.0,48.0,3.0,0.24,-0.07,10.32,-0.03,0.01,0.01,26.34,2.79,-0.73,120.32,18.142,84.38818565400861
18163.0,4095.0,2289.0,1.0,0.0,66.0,97.0,48.0,3.0,0.24,-0.06,10.33,-0.03,0.01,0.0,26.32,2.8,-0.73,120.54,18.163,84.38818565400861
18184.0,4095.0,2289.0,1.0,0.0,66.0,97.0,48.0,3.0,0.25,-0.06,10.32,-0.03,0.01,0.01,26.32,2.8,-0.73,120.75,18.184,84.38818565400861
18205.0,4095.0,2289.0,1.0,0.0,66.0,97.0,48.0,3.0,0.24,-0.08,10.33,-0.03,0.01,0.0,26.34,2.81,-0.73,120.97,18.205,84.38818565400861
18226.0,4095.0,2289.0,1.0,0.0,66.0,97.0,48.0,3.0,0.24,-0.05,10.36,-0.03,0.01,0.0,26.34,2.82,-0.73,121.19,18.226,84.38818565400861
18247.0,4095.0,2289.0,1.0,0.0,66.0,97.0,48.0,3.0,0.23,-0.06,10.32,-0.03,0.01,0.0,26.32,2.82,-0.74,121.41,18.247,84.38818565400861
18268.0,4095.0,2289.0,1.0,0.0,66.0,97.0,48.0,3.0,0.22,-0.06,10.35,-0.03,0.01,0.0,26.32,2.82,-0.74,121.62,18.268,84.38818565400861
18289.0,4095.0,2289.0,1.0,0.0,66.0,97.0,48.0,3.0,0.23,-0.05,10.34,-0.03,0.01,0.0,26.32,2.83,-0.74,121.84,18.289,84.38818565400861
18310.0,4095.0,2289.0,1.0,0.0,66.0,97.0,48.0,3.0,0.23,-0.06,10.32,-0.03,0.01,0.0,26.32,2.83,-0.74,122.06,18.31,84.38818565400861
18331.0,4095.0,2289.0,1.0,0.0,66.0,97.0,48.0,3.0,0.24,-0.05,10.31,-0.03,0.01,0.0,26.31,2.84,-0.74,122.27,18.331,84.38818565400861
18352.0,4095.0,2289.0,1.0,0.0,66.0,97.0,48.0,3.0,0.22,-0.05,10.31,-0.03,0.01,0.0,26.32,2.84,-0.74,122.49,18.352,84.38818565400861
18373.0,4095.0,2289.0,1.0,0.0,66.0,97.0,48.0,3.0,0.26,-0.07,10.34,-0.03,0.01,0.0,26.31,2.85,-0.74,122.71,18.373,
18394.0,4095.0,2289.0,1.0,0.0,66.0,97.0,48.0,3.0,0.23,-0.06,10.31,-0.03,0.01,0.0,26.33,2.85,-0.74,122.92,18.394,
18415.0,4095.0,2289.0,1.0,0.0,66.0,97.0,48.0,3.0,0.24,-0.06,10.3,-0.03,0.01,0.0,26.32,2.86,-0.74,123.14,18.415,
18436.0,4095.0,2289.0,1.0,0.0,66.0,97.0,48.0,3.0,0.23,-0.05,10.33,-0.03,0.01,0.0,26.32,2.86,-0.75,123.36,18.436,
18457.0,4095.0,2289.0,1.0,0.0,66.0,97.0,48.0,3.0,0.24,-0.07,10.33,-0.03,0.01,0.01,26.33,2.87,-0.75,123.57,18.457,
18478.0,4095.0,2289.0,1.0,0.0,66.0,97.0,48.0,3.0,0.24,-0.04,10.36,-0.03,0.01,0.0,26.32,2.87,-0.75,123.79,18.478,
18499.0,4095.0,2289.0,1.0,0.0,66.0,97.0,48.0,3.0,0.24,-0.06,10.34,-0.03,0.01,0.0,26.33,2.88,-0.75,124.01,18.499,
18520.0,4095.0,2289.0,1.0,0.0,66.0,97.0,48.0,3.0,0.25,-0.06,10.34,-0.03,0.01,0.0,26.33,2.88,-0.75,124.23,18.52,
18541.0,4095.0,2289.0,1.0,0.0,66.0,97.0,48.0,3.0,0.23,-0.07,10.32,-0.03,0.01,0.0,26.31,2.89,-0.75,124.44,18.541,
18562.0,4095.0,2289.0,1.0,0.0,66.0,97.0,48.0,3.0,0.25,-0.07,10.34,-0.03,0.01,0.0,26.33,2.89,-0.75,124.66,18.562,
18583.0,4095.0,2289.0,1.0,0.0,66.0,97.0,48.0,3.0,0.23,-0.07,10.33,-0.03,0.01,0.0,26.32,2.9,-0.75,124.88,18.583,
18604.0,4095.0,2289.0,1.0,0.0,66.0,97.0,48.0,3.0,0.24,-0.06,10.32,-0.03,0.01,0.0,26.32,2.9,-0.76,125.09,18.604,
18625.0,4095.0,2289.0,1.0,0.0,66.0,97.0,48.0,3.0,0.24,-0.07,10.34,-0.03,0.01,0.0,26.34,2.91,-0.76,125.31,18.625,
18646.0,4095.0,2289.0,1.0,0.0,66.0,97.0,48.0,3.0,0.24,-0.07,10.33,-0.03,0.01,0.0,26.31,2.91,-0.76,125.53,18.646,
18667.0,4095.0,2289.0,1.0,0.0,66.0,97.0,48.0,3.0,0.25,-0.06,10.32,-0.03,0.01,0.01,26.33,2.92,-0.76,125.74,18.667,
18688.0,4095.0,2289.0,1.0,0.0,66.0,97.0,48.0,3.0,0.24,-0.05,10.31,-0.03,0.01,0.0,26.32,2.92,-0.76,125.96,18.688,
18709.0,4095.0,2289.0,1.0,0.0,66.0,97.0,48.0,3.0,0.23,-0.07,10.34,-0.03,0.01,0.0,26.32,2.93,-0.76,126.18,18.709,
18730.0,4095.0,2289.0,1.0,0.0,66.0,97.0,48.0,3.0,0.23,-0.06,10.35,-0.03,0.01,0.0,26.33,2.93,-0.76,126.39,18.73,
18751.0,4095.0,2289.0,1.0,0.0,66.0,97.0,47.0,3.0,0.23,-0.06,10.3,-0.03,0.01,0.0,26.32,2.94,-0.77,126.61,18.751,
18772.0,4095.0,2289.0,1.0,0.0,66.0,97.0,47.0,3.0,0.24,-0.07,10.32,-0.03,0.01,0.0,26.32,2.94,-0.77,126.83,18.772,
18793.0,4095.0,2289.0,1.0,0.0,66.0,97.0,47.0,3.0,0.23,-0.07,10.33,-0.03,0.01,0.01,26.33,2.95,-0.77,127.05,18.793,
18814.0,4095.0,2289.0,1.0,0.0,66.0,97.0,47.0,3.0,0.24,-0.09,10.33,-0.03,0.01,0.01,26.34,2.95,-0.77,127.26,18.814,
18835.0,4095.0,2289.0,1.0,0.0,66.0,97.0,47.0,3.0,0.25,-0.07,10.33,-0.03,0.01,0.0,26.33,2.96,-0.77,127.48,18.835,
18856.0,4095.0,2289.0,1.0,0.0,66.0,97.0,47.0,3.0,0.23,-0.06,10.32,-0.03,0.01,0.0,26.34,2.96,-0.77,127.7,18.856,
18877.0,4095.0,2289.0,1.0,0.0,66.0,97.0,47.0,3.0,0.23,-0.06,10.34,-0.03,0.01,0.0,26.33,2.97,-0.77,127.91,18.877,
18898.0,4095.0,2289.0,1.0,0.0,66.0,97.0,47.0,3.0,0.23,-0.04,10.32,-0.03,0.01,0.01,26.31,2.97,-0.78,128.13,18.898,
18919.0,4095.0,2289.0,1.0,0.0,66.0,97.0,47.0,3.0,0.26,-0.06,10.33,-0.03,0.01,0.0,26.32,2.98,-0.78,128.35,18.919,
18940.0,4095.0,2289.0,1.0,0.0,66.0,97.0,47.0,3.0,0.25,-0.05,10.37,-0.03,0.01,0.0,26.34,2.98,-0.78,128.56,18.94,
18961.0,4095.0,2289.0,1.0,0.0,66.0,97.0,47.0,3.0,0.25,-0.07,10.34,-0.03,0.01,0.0,26.33,2.99,-0.78,128.78,18.961,
18982.0,4095.0,2289.0,1.0,0.0,66.0,97.0,47.0,3.0,0.24,-0.06,10.31,-0.03,0.01,0.0,26.32,3.0,-0.78,129.0,18.982,
19003.0,4095.0,2289.0,1.0,0.0,66.0,97.0,47.0,3.0,0.24,-0.06,10.3,-0.03,0.01,0.0,26.34,3.0,-0.78,129.21,19.003,
19024.0,4095.0,2289.0,1.0,0.0,66.0,97.0,47.0,3.0,0.24,-0.06,10.32,-0.03,0.01,0.01,26.34,3.01,-0.78,129.43,19.024,
19045.0,4095.0,2289.0,1.0,0.0,66.0,97.0,47.0,3.0,0.23,-0.06,10.33,-0.03,0.01,0.0,26.34,3.01,-0.78,129.65,19.045,
19066.0,4095.0,2289.0,1.0,0.0,66.0,97.0,47.0,3.0,0.23,-0.07,10.32,-0.03,0.01,0.0,26.35,3.02,-0.79,129.86,19.066,
19087.0,4095.0,2289.0,1.0,0.0,66.0,97.0,47.0,3.0,0.23,-0.07,10.33,-0.03,0.01,0.0,26.34,3.02,-0.79,130.08,19.087,
19108.0,4095.0,2289.0,1.0,0.0,66.0,97.0,47.0,3.0,0.25,-0.07,10.32,-0.03,0.01,0.0,26.34,3.03,-0.79,130.3,19.108,
19129.0,4095.0,2289.0,1.0,0.0,66.0,97.0,47.0,3.0,0.24,-0.06,10.32,-0.03,0.01,0.0,26.34,3.03,-0.79,130.52,19.129,
19150.0,4095.0,2289.0,1.0,0.0,66.0,97.0,47.0,3.0,0.23,-0.06,10.28,-0.03,0.01,0.01,26.35,3.04,-0.79,130.73,19.15,
19171.0,4095.0,2289.0,1.0,0.0,66.0,97.0,47.0,3.0,0.25,-0.07,10.29,-0.03,0.01,0.0,26.32,3.04,-0.79,130.95,19.171,
19192.0,4095.0,2289.0,1.0,0.0,66.0,97.0,47.0,3.0,0.24,-0.05,10.34,-0.03,0.01,0.0,26.34,3.05,-0.79,131.16,19.192,
19213.0,4095.0,2289.0,1.0,0.0,66.0,97.0,47.0,3.0,0.23,-0.08,10.33,-0.03,0.01,0.0,26.33,3.05,-0.79,131.38,19.213,
19234.0,4095.0,2289.0,1.0,0.0,66.0,97.0,47.0,3.0,0.23,-0.05,10.31,-0.03,0.01,0.01,26.34,3.06,-0.8,131.6,19.234,
19255.0,4095.0,2289.0,1.0,0.0,66.0,97.0,47.0,3.0,0.24,-0.07,10.33,-0.03,0.01,0.0,26.32,3.06,-0.8,131.81,19.255,
19276.0,4095.0,2289.0,1.0,0.0,66.0,97.0,47.0,3.0,0.25,-0.09,10.35,-0.03,0.01,0.01,26.32,3.07,-0.8,132.03,19.276,
19297.0,4095.0,2289.0,1.0,0.0,66.0,97.0,47.0,3.0,0.23,-0.07,10.32,-0.03,0.01,0.01,26.34,3.07,-0.8,132.25,19.297,12.165450121654496
19318.0,4095.0,2289.0,1.0,0.0,66.0,97.0,47.0,3.0,0.26,-0.05,10.31,-0.03,0.01,0.0,26.32,3.08,-0.8,132.47,19.318,12.165450121654496
19339.0,4095.0,2289.0,1.0,0.0,66.0,97.0,47.0,3.0,0.26,-0.05,10.34,-0.03,0.01,0.0,26.31,3.08,-0.8,132.68,19.339,12.165450121654496
19360.0,4095.0,2289.0,1.0,0.0,66.0,97.0,47.0,3.0,0.24,-0.07,10.33,-0.03,0.01,0.0,26.31,3.09,-0.8,132.9,19.36,12.165450121654496
19381.0,4095.0,2289.0,1.0,0.0,66.0,97.0,47.0,3.0,0.23,-0.08,10.34,-0.03,0.01,0.01,26.33,3.09,-0.81,133.12,19.381,12.165450121654496
19402.0,4095.0,2289.0,1.0,0.0,66.0,97.0,47.0,3.0,0.23,-0.07,10.33,-0.03,0.01,0.01,26.33,3.1,-0.81,133.33,19.402,12.165450121654496
19423.0,4095.0,2289.0,1.0,0.0,66.0,97.0,47.0,3.0,0.23,-0.06,10.31,-0.03,0.01,0.0,26.34,3.1,-0.81,133.55,19.423,12.165450121654496
19444.0,4095.0,2289.0,1.0,0.0,66.0,97.0,47.0,3.0,0.23,-0.07,10.32,-0.03,0.01,0.0,26.33,3.11,-0.81,133.77,19.444,12.165450121654496
19465.0,4095.0,2289.0,1.0,0.0,66.0,97.0,47.0,3.0,0.24,-0.06,10.33,-0.03,0.01,0.0,26.33,3.11,-0.81,133.98,19.465,12.165450121654496
19486.0,4095.0,2289.0,1.0,0.0,66.0,97.0,47.0,3.0,0.24,-0.06,10.34,-0.03,0.01,0.0,26.32,3.12,-0.81,134.2,19.486,12.165450121654496
19507.0,4095.0,2289.0,1.0,0.0,66.0,97.0,47.0,3.0,0.24,-0.05,10.34,-0.03,0.01,0.0,26.32,3.12,-0.81,134.42,19.507,12.165450121654496
19528.0,4095.0,2289.0,1.0,0.0,66.0,97.0,47.0,3.0,0.23,-0.05,10.32,-0.03,0.01,0.0,26.34,3.13,-0.81,134.63,19.528,12.165450121654496
19549.0,4095.0,2289.0,1.0,0.0,0.0,0.0,0.0,0.0,0.23,-0.05,10.31,-0.03,0.01,0.01,26.34,3.13,-0.82,134.85,19.549,12.165450121654496
19588.0,4095.0,2289.0,1.0,0.0,66.0,97.0,47.0,3.0,0.26,-0.07,10.32,-0.03,0.01,0.0,26.33,3.14,-0.82,135.25,19.588,12.165450121654496
19609.0,4095.0,2289.0,1.0,0.0,66.0,97.0,47.0,3.0,0.23,-0.07,10.35,-0.03,0.01,0.0,26.33,3.15,-0.82,135.47,19.609,12.165450121654496
19630.0,4095.0,2289.0,1.0,0.0,66.0,97.0,47.0,3.0,0.23,-0.07,10.33,-0.03,0.01,0.0,26.33,3.15,-0.82,135.69,19.63,12.165450121654496
19651.0,4095.0,2289.0,1.0,0.0,15.0,97.0,47.0,3.0,0.25,-0.07,10.34,-0.03,0.01,0.0,26.32,3.16,-0.82,135.9,19.651,12.165450121654496
19672.0,4095.0,2289.0,1.0,0.0,15.0,97.0,47.0,3.0,0.26,-0.08,10.36,-0.03,0.01,0.0,26.32,3.16,-0.82,136.12,19.672,12.165450121654496
19693.0,4095.0,2289.0,1.0,0.0,66.0,97.0,47.0,3.0,0.24,-0.06,10.32,-0.03,0.01,0.0,26.31,3.17,-0.83,136.34,19.693,12.165450121654496
19714.0,4095.0,2289.0,1.0,0.0,66.0,97.0,47.0,3.0,0.25,-0.06,10.33,-0.03,0.01,0.01,26.33,3.17,-0.83,136.56,19.714,12.165450121654496
19735.0,4095.0,2289.0,1.0,0.0,66.0,97.0,47.0,3.0,0.23,-0.06,10.3,-0.03,0.01,0.0,26.33,3.18,-0.83,136.77,19.735,12.165450121654496
19756.0,4095.0,2289.0,1.0,0.0,66.0,97.0,47.0,3.0,0.25,-0.07,10.34,-0.03,0.01,0.0,26.32,3.18,-0.83,136.99,19.756,12.165450121654496
19777.0,4095.0,2289.0,1.0,0.0,66.0,97.0,47.0,3.0,0.26,-0.06,10.31,-0.03,0.01,0.0,26.32,3.19,-0.83,137.21,19.777,12.165450121654496
19798.0,4095.0,2289.0,1.0,0.0,66.0,97.0,47.0,3.0,0.24,-0.07,10.3,-0.03,0.01,0.0,26.33,3.19,-0.83,137.42,19.798,12.165450121654496
19819.0,4095.0,2289.0,1.0,0.0,66.0,97.0,47.0,3.0,0.25,-0.06,10.32,-0.03,0.01,0.0,26.32,3.2,-0.83,137.64,19.819,12.165450121654496
19840.0,4095.0,2289.0,1.0,0.0,66.0,97.0,47.0,3.0,0.23,-0.06,10.34,-0.03,0.01,0.0,26.33,3.2,-0.84,137.86,19.84,12.165450121654496
19861.0,4095.0,2289.0,1.0,0.0,66.0,97.0,47.0,3.0,0.23,-0.06,10.32,-0.03,0.01,0.0,26.33,3.21,-0.84,138.07,19.861,12.165450121654496
19882.0,4095.0,2289.0,1.0,0.0,66.0,97.0,47.0,3.0,0.23,-0.07,10.35,-0.03,0.01,0.0,26.32,3.21,-0.84,138.29,19.882,12.165450121654496
19903.0,4095.0,2289.0,1.0,0.0,66.0,97.0,47.0,3.0,0.26,-0.06,10.34,-0.03,0.01,0.0,26.33,3.22,-0.84,138.51,19.903,12.165450121654496
19924.0,4095.0,2289.0,1.0,0.0,66.0,97.0,47.0,3.0,0.23,-0.06,10.33,-0.03,0.01,0.01,26.32,3.22,-0.84,138.72,19.924,12.165450121654496
19945.0,4095.0,2289.0,1.0,0.0,66.0,97.0,47.0,3.0,0.24,-0.06,10.34,-0.03,0.01,0.0,26.33,3.23,-0.84,138.94,19.945,12.165450121654496
19966.0,4095.0,2289.0,1.0,0.0,66.0,97.0,47.0,3.0,0.22,-0.05,10.35,-0.03,0.01,0.0,26.32,3.23,-0.84,139.16,19.966,12.165450121654496
19987.0,4095.0,2289.0,1.0,0.0,66.0,97.0,47.0,3.0,0.24,-0.06,10.36,-0.03,0.01,0.0,26.31,3.24,-0.84,139.38,19.987,12.165450121654496
20008.0,4095.0,2289.0,1.0,0.0,66.0,97.0,47.0,3.0,0.23,-0.05,10.33,-0.03,0.01,0.0,26.31,3.24,-0.84,139.59,20.008,12.165450121654496
20029.0,4095.0,2289.0,1.0,0.0,66.0,97.0,47.0,3.0,0.24,-0.06,10.35,-0.03,0.01,0.0,26.34,3.25,-0.85,139.81,20.029,12.165450121654496
20050.0,4095.0,2289.0,1.0,0.0,66.0,97.0,47.0,3.0,0.23,-0.05,10.33,-0.03,0.01,0.0,26.34,3.25,-0.85,140.03,20.05,12.165450121654496
20071.0,4095.0,2289.0,1.0,0.0,66.0,97.0,47.0,3.0,0.23,-0.06,10.34,-0.03,0.01,0.0,26.34,3.26,-0.85,140.25,20.071,12.165450121654496
20092.0,4095.0,2289.0,1.0,0.0,66.0,97.0,47.0,3.0,0.27,-0.06,10.34,-0.03,0.01,0.0,26.36,3.26,-0.85,140.46,20.092,12.165450121654496
20113.0,4095.0,2289.0,1.0,0.0,66.0,97.0,47.0,3.0,0.23,-0.08,10.35,-0.03,0.01,0.0,26.31,3.27,-0.85,140.68,20.113,12.165450121654496
20134.0,4095.0,2289.0,1.0,0.0,66.0,97.0,47.0,3.0,0.23,-0.05,10.35,-0.03,0.01,0.0,26.32,3.27,-0.85,140.9,20.134,12.165450121654496
20155.0,4095.0,2289.0,1.0,0.0,66.0,97.0,47.0,3.0,0.23,-0.05,10.32,-0.03,0.01,0.0,26.32,3.28,-0.85,141.11,20.155,12.165450121654496
20176.0,4095.0,2289.0,1.0,0.0,66.0,97.0,47.0,3.0,0.25,-0.06,10.34,-0.03,0.01,0.0,26.32,3.28,-0.85,141.33,20.176,12.165450121654496
20197.0,4095.0,2289.0,1.0,0.0,66.0,97.0,47.0,3.0,0.24,-0.05,10.32,-0.03,0.01,0.0,26.34,3.29,-0.86,141.55,20.197,12.165450121654496
20218.0,4095.0,2289.0,1.0,0.0,66.0,97.0,47.0,3.0,0.25,-0.06,10.29,-0.03,0.01,0.0,26.32,3.29,-0.86,141.76,20.218,12.165450121654496
20239.0,4095.0,2289.0,1.0,0.0,66.0,97.0,47.0,3.0,0.25,-0.07,10.32,-0.03,0.01,0.0,26.33,3.3,-0.86,141.98,20.239,12.165450121654496
20260.0,4095.0,2289.0,1.0,0.0,66.0,97.0,47.0,3.0,0.24,-0.06,10.34,-0.03,0.01,0.01,26.32,3.3,-0.86,142.2,20.26,12.165450121654496
20281.0,4095.0,2289.0,1.0,0.0,66.0,97.0,47.0,3.0,0.24,-0.05,10.31,-0.03,0.01,0.0,26.32,3.31,-0.86,142.41,20.281,12.165450121654496
20302.0,4095.0,2289.0,1.0,0.0,66.0,97.0,47.0,3.0,0.24,-0.07,10.31,-0.03,0.01,0.0,26.31,3.31,-0.86,142.63,20.302,12.165450121654496
20323.0,4095.0,2289.0,1.0,0.0,66.0,97.0,47.0,3.0,0.23,-0.05,10.34,-0.03,0.01,0.0,26.33,3.32,-0.86,142.85,20.323,12.165450121654496
20344.0,4095.0,2289.0,1.0,0.0,66.0,97.0,47.0,3.0,0.23,-0.08,10.3,-0.03,0.01,0.0,26.31,3.32,-0.86,143.06,20.344,12.165450121654496
20365.0,4095.0,2289.0,1.0,0.0,66.0,97.0,47.0,3.0,0.24,-0.06,10.34,-0.03,0.01,0.0,26.34,3.33,-0.87,143.28,20.365,12.165450121654496
20386.0,4095.0,2289.0,1.0,0.0,66.0,97.0,47.0,3.0,0.24,-0.07,10.34,-0.03,0.01,0.0,26.34,3.33,-0.87,143.5,20.386,12.165450121654496
20407.0,4095.0,2289.0,1.0,0.0,66.0,97.0,47.0,3.0,0.25,-0.06,10.34,-0.03,0.01,0.0,26.33,3.34,-0.87,143.72,20.407,12.165450121654496
20428.0,4095.0,2289.0,1.0,0.0,66.0,97.0,47.0,3.0,0.24,-0.06,10.32,-0.03,0.01,0.0,26.34,3.34,-0.87,143.93,20.428,12.165450121654496
20449.0,4095.0,2289.0,1.0,0.0,66.0,97.0,47.0,3.0,0.23,-0.06,10.34,-0.03,0.01,0.0,26.32,3.35,-0.87,144.15,20.449,12.165450121654496
20470.0,4095.0,2289.0,1.0,0.0,66.0,97.0,47.0,3.0,0.24,-0.05,10.33,-0.03,0.01,0.01,26.33,3.35,-0.87,144.37,20.47,12.165450121654496
20491.0,4095.0,2289.0,1.0,0.0,66.0,97.0,47.0,3.0,0.26,-0.07,10.3,-0.03,0.01,0.0,26.32,3.36,-0.87,144.58,20.491,12.165450121654496
20512.0,4095.0,2289.0,1.0,0.0,66.0,97.0,47.0,3.0,0.23,-0.06,10.34,-0.03,0.01,0.0,26.33,3.36,-0.87,144.8,20.512,12.165450121654496
20533.0,4095.0,2289.0,1.0,0.0,66.0,97.0,47.0,3.0,0.23,-0.05,10.32,-0.03,0.01,0.0,26.34,3.37,-0.88,145.02,20.533,12.165450121654496
20554.0,4095.0,2289.0,1.0,0.0,66.0,97.0,47.0,3.0,0.25,-0.05,10.32,-0.03,0.01,0.0,26.34,3.37,-0.88,145.23,20.554,12.165450121654496
20575.0,4095.0,2289.0,1.0,0.0,66.0,97.0,47.0,3.0,0.24,-0.05,10.32,-0.03,0.01,0.0,26.33,3.38,-0.88,145.45,20.575,12.165450121654496
20596.0,4095.0,2289.0,1.0,0.0,66.0,97.0,47.0,3.0,0.23,-0.06,10.34,-0.03,0.01,0.0,26.34,3.38,-0.88,145.67,20.596,12.165450121654496
20617.0,4095.0,2289.0,1.0,0.0,66.0,97.0,47.0,3.0,0.25,-0.07,10.32,-0.03,0.01,0.0,26.32,3.39,-0.88,145.88,20.617,12.165450121654496
20638.0,4095.0,2289.0,1.0,0.0,66.0,97.0,47.0,3.0,0.23,-0.06,10.32,-0.03,0.01,0.01,26.32,3.39,-0.88,146.1,20.638,12.165450121654496
20659.0,4095.0,2289.0,1.0,0.0,66.0,97.0,47.0,3.0,0.26,-0.07,10.34,-0.03,0.01,0.01,26.34,3.4,-0.88,146.32,20.659,12.165450121654496
20680.0,4095.0,2289.0,1.0,0.0,66.0,97.0,47.0,3.0,0.24,-0.05,10.31,-0.03,0.01,0.0,26.34,3.4,-0.88,146.54,20.68,12.165450121654496
20701.0,4095.0,2289.0,1.0,0.0,66.0,97.0,47.0,3.0,0.25,-0.06,10.32,-0.03,0.01,0.0,26.34,3.41,-0.89,146.75,20.701,12.165450121654496
20722.0,4095.0,2289.0,1.0,0.0,66.0,97.0,47.0,3.0,0.24,-0.04,10.33,-0.03,0.01,0.0,26.34,3.41,-0.89,146.97,20.722,12.165450121654496
20743.0,4095.0,2289.0,1.0,0.0,66.0,97.0,47.0,3.0,0.25,-0.06,10.31,-0.03,0.01,0.0,26.33,3.42,-0.89,147.19,20.743,12.165450121654496
20764.0,4095.0,2289.0,1.0,0.0,66.0,97.0,47.0,3.0,0.24,-0.06,10.34,-0.03,0.01,0.0,26.34,3.42,-0.89,147.4,20.764,12.165450121654496
20785.0,4095.0,2289.0,1.0,0.0,66.0,97.0,47.0,3.0,0.22,-0.05,10.34,-0.03,0.01,0.0,26.35,3.43,-0.89,147.62,20.785,12.165450121654496
20806.0,4095.0,2289.0,1.0,0.0,66.0,97.0,47.0,3.0,0.23,-0.07,10.34,-0.03,0.01,0.0,26.33,3.43,-0.89,147.84,20.806,12.165450121654496
20827.0,4095.0,2289.0,1.0,0.0,66.0,97.0,47.0,3.0,0.26,-0.04,10.34,-0.03,0.01,0.0,26.32,3.44,-0.89,148.05,20.827,12.165450121654496
20848.0,4095.0,2289.0,1.0,0.0,66.0,97.0,47.0,3.0,0.23,-0.05,10.34,-0.03,0.01,0.0,26.34,3.44,-0.89,148.27,20.848,12.165450121654496
20869.0,4095.0,2289.0,1.0,0.0,66.0,97.0,47.0,3.0,0.26,-0.07,10.34,-0.03,0.01,0.0,26.32,3.45,-0.9,148.49,20.869,12.165450121654496
20890.0,4095.0,2289.0,1.0,0.0,66.0,97.0,47.0,3.0,0.23,-0.08,10.34,-0.03,0.01,0.0,26.34,3.45,-0.9,148.71,20.89,12.165450121654496
20911.0,4095.0,2289.0,1.0,0.0,66.0,97.0,47.0,3.0,0.24,-0.06,10.36,-0.03,0.01,0.0,26.34,3.46,-0.9,148.92,20.911,12.165450121654496
20932.0,4095.0,2289.0,1.0,0.0,66.0,97.0,47.0,3.0,0.24,-0.08,10.34,-0.03,0.01,0.0,26.35,3.46,-0.9,149.14,20.932,12.165450121654496
20953.0,4095.0,2289.0,1.0,0.0,66.0,97.0,47.0,3.0,0.26,-0.05,10.33,-0.03,0.01,0.01,26.34,3.47,-0.9,149.36,20.953,12.165450121654496
20974.0,4095.0,2289.0,1.0,0.0,66.0,97.0,47.0,3.0,0.23,-0.04,10.33,-0.03,0.01,0.01,26.32,3.48,-0.9,149.57,20.974,12.165450121654496
20995.0,4095.0,2289.0,1.0,0.0,66.0,97.0,47.0,3.0,0.24,-0.05,10.32,-0.03,0.01,0.0,26.32,3.48,-0.9,149.79,20.995,12.165450121654496
21016.0,4095.0,2289.0,1.0,0.0,66.0,97.0,47.0,3.0,0.23,-0.06,10.33,-0.03,0.01,0.0,26.33,3.49,-0.9,150.01,21.016,12.165450121654496
21037.0,4095.0,2289.0,1.0,0.0,66.0,97.0,47.0,3.0,0.23,-0.05,10.32,-0.03,0.01,0.01,26.36,3.49,-0.91,150.22,21.037,12.165450121654496
21058.0,4095.0,2289.0,1.0,0.0,66.0,97.0,47.0,3.0,0.24,-0.07,10.33,-0.03,0.01,0.0,26.33,3.49,-0.91,150.44,21.058,12.165450121654496
21079.0,4095.0,2289.0,1.0,0.0,66.0,97.0,47.0,3.0,0.23,-0.07,10.31,-0.03,0.01,0.01,26.32,3.5,-0.91,150.66,21.079,12.165450121654496
21100.0,4095.0,2289.0,1.0,0.0,66.0,97.0,47.0,3.0,0.23,-0.07,10.33,-0.03,0.01,0.01,26.34,3.5,-0.91,150.87,21.1,12.165450121654496
21121.0,4095.0,2289.0,1.0,0.0,66.0,97.0,47.0,3.0,0.23,-0.07,10.32,-0.03,0.01,0.0,26.33,3.51,-0.91,151.09,21.121,12.165450121654496
21142.0,4095.0,2289.0,1.0,0.0,66.0,97.0,47.0,3.0,0.24,-0.06,10.3,-0.03,0.01,0.01,26.34,3.51,-0.91,151.31,21.142,12.165450121654496
21163.0,4095.0,2289.0,1.0,0.0,66.0,97.0,47.0,3.0,0.24,-0.06,10.36,-0.03,0.01,0.01,26.33,3.52,-0.91,151.53,21.163,12.165450121654496
21184.0,4095.0,2289.0,1.0,0.0,66.0,97.0,47.0,3.0,0.25,-0.05,10.35,-0.03,0.01,0.01,26.33,3.52,-0.91,151.74,21.184,12.165450121654496
21205.0,4095.0,2289.0,0.0,0.0,66.0,97.0,47.0,3.0,0.24,-0.05,10.37,-0.03,0.01,0.01,26.34,3.53,-0.92,151.96,21.205,12.165450121654496
21226.0,4095.0,2289.0,0.0,0.0,66.0,97.0,47.0,3.0,0.23,-0.08,10.34,-0.03,0.01,0.0,26.33,3.53,-0.92,152.18,21.226,12.165450121654496
21247.0,4095.0,2289.0,0.0,0.0,66.0,97.0,47.0,3.0,0.26,-0.08,10.32,-0.03,0.01,0.0,26.35,3.54,-0.92,152.39,21.247,12.165450121654496
21268.0,2237.0,431.0,0.0,0.0,66.0,97.0,47.0,3.0,0.23,-0.03,10.31,-0.03,0.01,0.0,26.34,3.55,-0.92,152.61,21.268,12.165450121654496
21289.0,1895.0,89.0,0.0,0.0,66.0,97.0,47.0,3.0,0.23,-0.04,10.32,-0.03,0.01,0.0,26.35,3.55,-0.92,152.83,21.289,12.165450121654496
21310.0,450.0,-1356.0,0.0,0.0,66.0,97.0,47.0,3.0,0.24,-0.04,10.35,-0.03,0.01,0.0,26.34,3.55,-0.92,153.04,21.31,12.165450121654496
21331.0,2720.0,914.0,0.0,0.0,66.0,97.0,47.0,3.0,0.24,-0.06,10.35,-0.03,0.01,0.0,26.33,3.56,-0.92,153.26,21.331,12.165450121654496
21352.0,308.0,-1498.0,0.0,0.0,66.0,97.0,47.0,3.0,0.23,-0.05,10.36,-0.03,0.01,0.0,26.35,3.57,-0.92,153.48,21.352,12.165450121654496
21373.0,4095.0,2289.0,0.0,0.0,66.0,97.0,47.0,3.0,0.23,-0.07,10.32,-0.03,0.01,0.0,26.34,3.57,-0.92,153.7,21.373,12.165450121654496
21394.0,455.0,-1351.0,0.0,0.0,66.0,97.0,47.0,3.0,0.23,-0.06,10.32,-0.03,0.01,0.01,26.34,3.57,-0.93,153.91,21.394,12.165450121654496
21415.0,2001.0,195.0,0.0,0.0,66.0,97.0,47.0,3.0,0.24,-0.04,10.33,-0.03,0.01,0.0,26.32,3.58,-0.93,154.13,21.415,12.165450121654496
21436.0,1655.0,-151.0,0.0,0.0,66.0,97.0,47.0,3.0,0.24,-0.06,10.32,-0.03,0.01,0.0,26.32,3.58,-0.93,154.35,21.436,12.165450121654496
21457.0,2962.0,1156.0,0.0,0.0,66.0,97.0,47.0,3.0,0.23,-0.04,10.33,-0.03,0.01,0.0,26.32,3.59,-0.93,154.56,21.457,12.165450121654496
21478.0,1442.0,-364.0,0.0,0.0,66.0,97.0,47.0,3.0,0.23,-0.08,10.31,-0.03,0.01,0.0,26.32,3.59,-0.93,154.78,21.478,12.165450121654496
21499.0,1751.0,-55.0,0.0,0.0,66.0,97.0,47.0,3.0,0.24,-0.07,10.3,-0.03,0.01,0.0,26.33,3.6,-0.93,155.0,21.499,150.37593984962507
21520.0,1836.0,30.0,0.0,0.0,66.0,97.0,47.0,3.0,0.23,-0.06,10.34,-0.03,0.01,0.01,26.34,3.6,-0.93,155.21,21.52,150.37593984962507
21541.0,1989.0,183.0,0.0,0.0,66.0,97.0,47.0,3.0,0.23,-0.06,10.33,-0.03,0.01,0.0,26.32,3.61,-0.93,155.43,21.541,150.37593984962507
21562.0,3225.0,1419.0,0.0,0.0,66.0,97.0,47.0,3.0,0.23,-0.08,10.34,-0.03,0.01,0.0,26.31,3.61,-0.94,155.65,21.562,150.37593984962507
21583.0,1556.0,-250.0,0.0,0.0,66.0,97.0,47.0,3.0,0.22,-0.06,10.35,-0.03,0.01,0.0,26.32,3.62,-0.94,155.87,21.583,150.37593984962507
21604.0,3275.0,1469.0,0.0,0.0,66.0,97.0,47.0,3.0,0.24,-0.06,10.33,-0.03,0.01,0.01,26.33,3.62,-0.94,156.08,21.604,150.37593984962507
21625.0,3339.0,1533.0,0.0,0.0,66.0,97.0,47.0,3.0,0.24,-0.06,10.35,-0.03,0.01,0.0,26.32,3.63,-0.94,156.3,21.625,150.37593984962507
21646.0,3639.0,1833.0,0.0,0.0,66.0,97.0,47.0,3.0,0.24,-0.05,10.35,-0.03,0.01,0.01,26.32,3.63,-0.94,156.52,21.646,150.37593984962507
21667.0,1299.0,-507.0,0.0,0.0,66.0,97.0,47.0,3.0,0.24,-0.05,10.34,-0.03,0.01,0.0,26.32,3.64,-0.94,156.73,21.667,150.37593984962507
21688.0,1726.0,-80.0,0.0,0.0,66.0,97.0,47.0,3.0,0.24,-0.07,10.3,-0.03,0.01,0.0,26.32,3.64,-0.94,156.95,21.688,150.37593984962507
21709.0,33.0,-1773.0,0.0,0.0,66.0,97.0,47.0,3.0,0.24,-0.07,10.33,-0.03,0.01,0.0,26.32,3.65,-0.95,157.17,21.709,150.37593984962507
21730.0,2992.0,1186.0,0.0,0.0,66.0,97.0,47.0,3.0,0.24,-0.06,10.31,-0.03,0.01,0.0,26.32,3.65,-0.95,157.38,21.73,150.37593984962507
21751.0,2357.0,551.0,0.0,0.0,66.0,97.0,47.0,3.0,0.24,-0.05,10.3,-0.03,0.01,0.0,26.33,3.66,-0.95,157.6,21.751,150.37593984962507
21772.0,720.0,-1086.0,0.0,0.0,66.0,97.0,47.0,3.0,0.25,-0.06,10.32,-0.03,0.01,0.0,26.32,3.66,-0.95,157.82,21.772,150.37593984962507
21793.0,1629.0,-177.0,0.0,0.0,66.0,97.0,47.0,3.0,0.23,-0.06,10.32,-0.03,0.01,0.01,26.34,3.67,-0.95,158.03,21.793,150.37593984962507
21814.0,1681.0,-125.0,0.0,0.0,66.0,97.0,47.0,3.0,0.25,-0.07,10.34,-0.03,0.01,0.01,26.34,3.67,-0.95,158.25,21.814,150.37593984962507
21835.0,4095.0,2289.0,0.0,0.0,68.0,97.0,94.0,3.0,0.24,-0.06,10.31,-0.03,0.01,0.0,26.32,3.68,-0.95,158.47,21.835,150.37593984962507
21856.0,2736.0,930.0,0.0,0.0,68.0,97.0,94.0,3.0,0.23,-0.08,10.33,-0.03,0.01,0.0,26.33,3.69,-0.95,158.68,21.856,150.37593984962507
21877.0,1965.0,159.0,0.0,0.0,68.0,97.0,94.0,3.0,0.24,-0.06,10.3,-0.03,0.01,0.0,26.32,3.69,-0.96,158.9,21.877,150.37593984962507
21898.0,2384.0,578.0,0.0,0.0,66.0,97.0,47.0,3.0,0.24,-0.05,10.33,-0.03,0.01,0.0,26.32,3.7,-0.96,159.12,21.898,150.3759398496237
21919.0,2240.0,434.0,0.0,0.0,66.0,97.0,47.0,3.0,0.23,-0.07,10.31,-0.03,0.01,0.0,26.35,3.7,-0.96,159.33,21.919,150.3759398496237
21940.0,1651.0,-155.0,0.0,0.0,66.0,97.0,47.0,3.0,0.24,-0.06,10.32,-0.03,0.01,0.0,26.31,3.71,-0.96,159.55,21.94,150.3759398496237
21961.0,0.0,-1806.0,0.0,0.0,66.0,97.0,47.0,3.0,0.24,-0.06,10.3,-0.03,0.01,0.0,26.32,3.71,-0.96,159.77,21.961,150.3759398496237
21982.0,1714.0,-92.0,0.0,0.0,68.0,97.0,94.0,3.0,0.23,-0.08,10.31,-0.03,0.01,0.0,26.34,3.72,-0.96,159.98,21.982,150.3759398496237
22003.0,1937.0,131.0,0.0,0.0,68.0,97.0,94.0,3.0,0.24,-0.06,10.33,-0.03,0.01,0.0,26.35,3.72,-0.96,160.2,22.003,150.3759398496237
22024.0,1927.0,121.0,0.0,0.0,68.0,97.0,94.0,3.0,0.26,-0.05,10.34,-0.03,0.01,0.0,26.34,3.73,-0.96,160.42,22.024,150.3759398496237
22045.0,1928.0,122.0,0.0,0.0,68.0,97.0,94.0,3.0,0.24,-0.07,10.35,-0.03,0.01,0.0,26.34,3.73,-0.97,160.63,22.045,150.3759398496237
22066.0,0.0,-1806.0,0.0,0.0,68.0,97.0,94.0,3.0,0.25,-0.07,10.34,-0.03,0.01,0.0,26.33,3.74,-0.97,160.85,22.066,150.3759398496237
22087.0,0.0,-1806.0,0.0,0.0,68.0,97.0,94.0,3.0,0.23,-0.07,10.34,-0.03,0.01,0.0,26.32,3.74,-0.97,161.07,22.087,150.3759398496237
22108.0,0.0,-1806.0,0.0,0.0,68.0,97.0,94.0,3.0,0.24,-0.07,10.33,-0.03,0.01,0.0,26.34,3.75,-0.97,161.29,22.108,150.3759398496237
22129.0,2697.0,891.0,0.0,0.0,68.0,97.0,94.0,3.0,0.25,-0.07,10.3,-0.03,0.01,0.0,26.34,3.75,-0.97,161.5,22.129,150.3759398496237
22150.0,2346.0,540.0,0.0,0.0,68.0,97.0,94.0,3.0,0.26,-0.07,10.35,-0.03,0.01,0.0,26.32,3.76,-0.97,161.72,22.15,150.3759398496237
22171.0,2029.0,223.0,0.0,0.0,68.0,97.0,94.0,3.0,0.24,-0.07,10.35,-0.03,0.01,0.01,26.33,3.76,-0.97,161.94,22.171,150.3759398496237
22192.0,2607.0,801.0,0.0,0.0,68.0,97.0,94.0,3.0,0.24,-0.05,10.32,-0.03,0.01,0.0,26.33,3.77,-0.98,162.15,22.192,150.3759398496237
22213.0,2342.0,536.0,0.0,0.0,68.0,97.0,94.0,3.0,0.24,-0.06,10.3,-0.03,0.01,0.01,26.32,3.77,-0.98,162.37,22.213,150.3759398496237
22234.0,1856.0,50.0,0.0,0.0,68.0,97.0,94.0,3.0,0.24,-0.08,10.36,-0.03,0.01,0.0,26.32,3.78,-0.98,162.59,22.234,150.3759398496237
22255.0,1348.0,-458.0,0.0,0.0,68.0,97.0,94.0,3.0,0.24,-0.07,10.32,-0.03,0.01,0.0,26.33,3.78,-0.98,162.81,22.255,150.3759398496237
22276.0,1592.0,-214.0,0.0,0.0,68.0,97.0,94.0,3.0,0.24,-0.07,10.33,-0.03,0.01,0.01,26.33,3.79,-0.98,163.02,22.276,150.3759398496237
22297.0,1377.0,-429.0,0.0,0.0,68.0,97.0,94.0,3.0,0.24,-0.06,10.36,-0.03,0.01,0.0,26.31,3.79,-0.98,163.24,22.297,150.3759398496237
22318.0,1999.0,193.0,0.0,0.0,68.0,97.0,94.0,3.0,0.24,-0.07,10.34,-0.03,0.01,0.0,26.32,3.8,-0.98,163.46,22.318,150.3759398496237
22339.0,2471.0,665.0,0.0,0.0,68.0,97.0,94.0,3.0,0.23,-0.05,10.33,-0.03,0.01,0.0,26.34,3.8,-0.99,163.67,22.339,124.22360248447191
22360.0,2011.0,205.0,0.0,0.0,68.0,97.0,94.0,3.0,0.23,-0.07,10.32,-0.03,0.01,0.0,26.32,3.81,-0.99,163.89,22.36,124.22360248447191
22381.0,1721.0,-85.0,0.0,0.0,68.0,97.0,94.0,3.0,0.24,-0.07,10.35,-0.03,0.01,0.01,26.34,3.81,-0.99,164.11,22.381,124.22360248447191
22402.0,1910.0,104.0,0.0,0.0,68.0,97.0,94.0,3.0,0.24,-0.06,10.32,-0.03,0.01,0.0,26.33,3.82,-0.99,164.32,22.402,124.22360248447191
22423.0,1958.0,152.0,0.0,0.0,68.0,97.0,94.0,3.0,0.26,-0.05,10.32,-0.03,0.01,0.0,26.31,3.82,-0.99,164.54,22.423,124.22360248447191
22444.0,1933.0,127.0,0.0,0.0,68.0,97.0,94.0,3.0,0.25,-0.06,10.31,-0.03,0.01,0.0,26.33,3.83,-0.99,164.76,22.444,124.22360248447191
22465.0,470.0,-1336.0,0.0,0.0,68.0,97.0,94.0,3.0,0.24,-0.06,10.34,-0.03,0.01,0.0,26.33,3.83,-0.99,164.97,22.465,124.22360248447191
22486.0,0.0,-1806.0,0.0,0.0,68.0,97.0,94.0,3.0,0.25,-0.06,10.31,-0.03,0.01,0.0,26.32,3.84,-0.99,165.19,22.486,124.22360248447191
22507.0,0.0,-1806.0,0.0,0.0,68.0,97.0,94.0,3.0,0.25,-0.06,10.34,-0.03,0.01,0.0,26.34,3.84,-1.0,165.41,22.507,124.22360248447191
22528.0,0.0,-1806.0,0.0,0.0,68.0,97.0,94.0,3.0,0.23,-0.06,10.3,-0.03,0.01,0.01,26.32,3.85,-1.0,165.63,22.528,124.22360248447191
22549.0,1616.0,-190.0,0.0,0.0,68.0,97.0,94.0,3.0,0.26,-0.06,10.33,-0.03,0.01,0.01,26.33,3.85,-1.0,165.84,22.549,124.22360248447191
22570.0,1947.0,141.0,0.0,0.0,68.0,97.0,94.0,3.0,0.23,-0.06,10.31,-0.03,0.01,0.01,26.33,3.86,-1.0,166.06,22.57,124.22360248447191
22591.0,2627.0,821.0,0.0,0.0,68.0,97.0,94.0,3.0,0.24,-0.05,10.32,-0.03,0.01,0.01,26.32,3.86,-1.0,166.28,22.591,124.22360248447191
22612.0,859.0,-947.0,0.0,0.0,68.0,97.0,94.0,3.0,0.27,-0.07,10.35,-0.03,0.01,0.0,26.31,3.87,-1.0,166.49,22.612,124.22360248447191
22633.0,1154.0,-652.0,0.0,0.0,68.0,97.0,94.0,3.0,0.24,-0.07,10.36,-0.03,0.01,0.01,26.31,3.87,-1.0,166.71,22.633,124.22360248447191
22654.0,1977.0,171.0,0.0,0.0,68.0,97.0,94.0,3.0,0.23,-0.07,10.31,-0.03,0.01,0.01,26.32,3.88,-1.01,166.93,22.654,124.22360248447191
22675.0,1904.0,98.0,0.0,0.0,68.0,97.0,94.0,3.0,0.24,-0.06,10.35,-0.03,0.01,0.0,26.32,3.88,-1.01,167.14,22.675,124.22360248447191
22696.0,889.0,-917.0,0.0,0.0,68.0,97.0,94.0,3.0,0.24,-0.07,10.32,-0.03,0.01,0.0,26.32,3.89,-1.01,167.36,22.696,124.22360248447191
22717.0,0.0,-1806.0,0.0,0.0,68.0,97.0,94.0,3.0,0.23,-0.07,10.34,-0.03,0.01,0.0,26.32,3.89,-1.01,167.58,22.717,124.22360248447191
22738.0,0.0,-1806.0,0.0,0.0,68.0,97.0,94.0,3.0,0.24,-0.05,10.3,-0.03,0.01,0.0,26.3,3.9,-1.01,167.79,22.738,124.22360248447191
22759.0,646.0,-1160.0,0.0,0.0,68.0,97.0,94.0,3.0,0.25,-0.07,10.3,-0.03,0.01,0.0,26.33,3.9,-1.01,168.01,22.759,124.22360248447191
22780.0,1830.0,24.0,0.0,0.0,68.0,97.0,94.0,3.0,0.23,-0.07,10.33,-0.03,0.01,0.0,26.32,3.91,-1.01,168.23,22.78,124.22360248447191
22801.0,1808.0,2.0,0.0,0.0,68.0,97.0,94.0,3.0,0.24,-0.07,10.38,-0.03,0.01,0.01,26.32,3.91,-1.01,168.44,22.801,124.22360248447191
22822.0,1610.0,-196.0,0.0,0.0,0.0,0.0,0.0,0.0,0.23,-0.06,10.34,-0.03,0.01,0.0,26.33,3.92,-1.02,168.66,22.822,126.58227848101261
22861.0,2245.0,439.0,0.0,0.0,0.0,0.0,0.0,0.0,0.24,-0.07,10.33,-0.03,0.01,0.0,26.33,3.93,-1.02,169.07,22.861,126.58227848101261
22900.0,0.0,-1806.0,0.0,0.0,68.0,97.0,94.0,3.0,0.22,-0.06,10.32,-0.03,0.01,0.0,26.33,3.94,-1.02,169.47,22.9,126.58227848101261
22921.0,2118.0,312.0,0.0,0.0,68.0,97.0,94.0,3.0,0.23,-0.07,10.35,-0.03,0.01,0.0,26.33,3.94,-1.02,169.69,22.921,126.58227848101261
22942.0,703.0,-1103.0,0.0,0.0,68.0,97.0,94.0,3.0,0.24,-0.06,10.32,-0.03,0.01,0.0,26.31,3.95,-1.02,169.9,22.942,126.58227848101261
22963.0,0.0,-1806.0,0.0,0.0,68.0,97.0,94.0,3.0,0.24,-0.06,10.31,-0.03,0.01,0.0,26.33,3.95,-1.02,170.12,22.963,126.58227848101261
22984.0,2490.0,684.0,0.0,0.0,0.0,0.0,0.0,0.0,0.26,-0.08,10.34,-0.03,0.01,0.0,26.31,3.96,-1.03,170.34,22.984,126.58227848101261
23023.0,1733.0,-73.0,0.0,0.0,68.0,97.0,94.0,3.0,0.23,-0.07,10.35,-0.03,0.01,0.0,26.34,3.97,-1.03,170.74,23.023,126.58227848101261
23044.0,4095.0,2289.0,0.0,0.0,68.0,97.0,94.0,3.0,0.25,-0.04,10.32,-0.03,0.01,0.0,26.33,3.97,-1.03,170.96,23.044,126.58227848101261
23065.0,1930.0,124.0,0.0,0.0,68.0,97.0,94.0,3.0,0.23,-0.06,10.32,-0.03,0.01,0.0,26.3,3.98,-1.03,171.17,23.065,126.58227848101261
23086.0,1680.0,-126.0,0.0,0.0,68.0,97.0,94.0,3.0,0.25,-0.07,10.31,-0.03,0.01,0.0,26.31,3.98,-1.03,171.39,23.086,126.58227848101261
23107.0,1807.0,1.0,0.0,0.0,68.0,97.0,94.0,3.0,0.24,-0.05,10.29,-0.03,0.01,0.0,26.32,3.99,-1.03,171.61,23.107,126.58227848101261
23128.0,1245.0,-561.0,0.0,0.0,68.0,97.0,94.0,3.0,0.25,-0.06,10.32,-0.03,0.01,0.01,26.32,3.99,-1.03,171.82,23.128,126.58227848101261
23149.0,1952.0,146.0,0.0,0.0,68.0,97.0,94.0,3.0,0.23,-0.08,10.32,-0.03,0.01,0.0,26.32,4.0,-1.04,172.04,23.149,126.58227848101261
23170.0,3184.0,1378.0,0.0,0.0,68.0,97.0,94.0,3.0,0.24,-0.07,10.33,-0.03,0.01,0.01,26.32,4.0,-1.04,172.26,23.17,126.58227848101261
23191.0,4095.0,2289.0,0.0,0.0,68.0,97.0,94.0,3.0,0.24,-0.07,10.32,-0.03,0.01,0.0,26.32,4.01,-1.04,172.47,23.191,126.58227848101261
23212.0,663.0,-1143.0,0.0,0.0,68.0,97.0,94.0,3.0,0.24,-0.04,10.37,-0.03,0.01,0.01,26.33,4.01,-1.04,172.69,23.212,126.58227848101261
23233.0,3489.0,1683.0,0.0,0.0,68.0,97.0,94.0,3.0,0.24,-0.07,10.34,-0.03,0.01,0.01,26.32,4.02,-1.04,172.91,23.233,126.58227848101261
23254.0,4095.0,2289.0,0.0,0.0,68.0,97.0,94.0,3.0,0.23,-0.06,10.29,-0.03,0.01,0.0,26.31,4.02,-1.04,173.12,23.254,126.58227848101261
23275.0,336.0,-1470.0,0.0,0.0,68.0,97.0,94.0,3.0,0.24,-0.07,10.33,-0.03,0.01,0.0,26.31,4.03,-1.04,173.34,23.275,126.58227848101261
23296.0,560.0,-1246.0,0.0,0.0,68.0,97.0,94.0,3.0,0.25,-0.06,10.35,-0.03,0.01,0.0,26.32,4.03,-1.05,173.56,23.296,126.58227848101261
23317.0,3887.0,2081.0,0.0,0.0,68.0,97.0,94.0,3.0,0.24,-0.07,10.31,-0.03,0.01,0.0,26.31,4.04,-1.05,173.78,23.317,126.58227848101261
23338.0,352.0,-1454.0,0.0,0.0,68.0,97.0,94.0,3.0,0.25,-0.07,10.34,-0.03,0.01,0.0,26.32,4.04,-1.05,173.99,23.338,126.58227848101261
23359.0,1949.0,143.0,0.0,0.0,68.0,97.0,94.0,3.0,0.23,-0.05,10.34,-0.03,0.01,0.0,26.32,4.05,-1.05,174.21,23.359,126.58227848101261
23380.0,1928.0,122.0,0.0,0.0,68.0,97.0,94.0,3.0,0.24,-0.08,10.36,-0.03,0.01,0.0,26.31,4.05,-1.05,174.43,23.38,126.58227848101261
23401.0,1927.0,121.0,0.0,0.0,68.0,97.0,94.0,3.0,0.25,-0.07,10.34,-0.03,0.01,0.0,26.32,4.06,-1.05,174.64,23.401,126.58227848101261
23422.0,1927.0,121.0,0.0,0.0,68.0,97.0,94.0,3.0,0.23,-0.05,10.33,-0.03,0.01,0.0,26.33,4.06,-1.05,174.86,23.422,126.58227848101261
23443.0,1923.0,117.0,0.0,0.0,68.0,97.0,94.0,3.0,0.25,-0.06,10.32,-0.03,0.01,0.0,26.32,4.07,-1.06,175.08,23.443,126.58227848101261
23464.0,1930.0,124.0,0.0,0.0,68.0,97.0,94.0,3.0,0.24,-0.06,10.36,-0.03,0.01,0.0,26.32,4.07,-1.06,175.3,23.464,126.58227848101261
23485.0,1991.0,185.0,0.0,0.0,68.0,97.0,94.0,3.0,0.24,-0.05,10.34,-0.03,0.01,0.0,26.32,4.08,-1.06,175.51,23.485,126.58227848101261
23506.0,1914.0,108.0,0.0,0.0,68.0,97.0,94.0,3.0,0.23,-0.06,10.32,-0.03,0.01,0.0,26.3,4.08,-1.06,175.73,23.506,126.58227848101261
23527.0,1773.0,-33.0,0.0,0.0,68.0,97.0,94.0,3.0,0.23,-0.07,10.33,-0.03,0.01,0.0,26.32,4.09,-1.06,175.95,23.527,126.58227848101261
23548.0,1699.0,-107.0,0.0,0.0,68.0,97.0,94.0,3.0,0.26,-0.07,10.33,-0.03,0.01,0.0,26.32,4.09,-1.06,176.16,23.548,126.58227848101261
23569.0,1607.0,-199.0,0.0,0.0,68.0,97.0,94.0,3.0,0.24,-0.05,10.33,-0.03,0.01,0.0,26.32,4.1,-1.06,176.38,23.569,126.58227848101261
23590.0,1427.0,-379.0,0.0,0.0,68.0,97.0,94.0,3.0,0.23,-0.06,10.31,-0.03,0.01,0.0,26.32,4.1,-1.06,176.6,23.59,126.58227848101261
23611.0,1415.0,-391.0,0.0,0.0,68.0,97.0,94.0,3.0,0.26,-0.06,10.33,-0.03,0.01,0.0,26.32,4.11,-1.07,176.81,23.611,126.58227848101261
23632.0,1368.0,-438.0,0.0,0.0,68.0,97.0,94.0,3.0,0.23,-0.07,10.32,-0.03,0.01,0.0,26.32,4.12,-1.07,177.03,23.632,126.58227848101261
23653.0,1347.0,-459.0,0.0,0.0,67.0,97.0,97.0,3.0,0.24,-0.04,10.32,-0.03,0.01,0.01,26.33,4.12,-1.07,177.25,23.653,126.58227848101261
23674.0,1245.0,-561.0,0.0,0.0,67.0,97.0,97.0,3.0,0.24,-0.07,10.33,-0.03,0.01,0.0,26.32,4.13,-1.07,177.46,23.674,48.42615012106535
23695.0,1263.0,-543.0,0.0,0.0,67.0,97.0,97.0,3.0,0.23,-0.05,10.32,-0.03,0.01,0.01,26.3,4.13,-1.07,177.68,23.695,48.42615012106535
23716.0,1111.0,-695.0,0.0,0.0,67.0,97.0,97.0,3.0,0.25,-0.05,10.33,-0.03,0.01,0.0,26.33,4.14,-1.07,177.9,23.716,48.42615012106535
23737.0,1127.0,-679.0,0.0,0.0,67.0,97.0,97.0,3.0,0.23,-0.07,10.35,-0.03,0.01,0.0,26.32,4.14,-1.07,178.12,23.737,48.42615012106535
23758.0,1182.0,-624.0,0.0,0.0,67.0,97.0,97.0,3.0,0.24,-0.03,10.35,-0.03,0.01,0.0,26.33,4.15,-1.07,178.33,23.758,48.42615012106535
23779.0,1277.0,-529.0,0.0,0.0,67.0,97.0,97.0,3.0,0.24,-0.04,10.33,-0.03,0.01,0.0,26.32,4.15,-1.07,178.55,23.779,48.42615012106535
23800.0,1152.0,-654.0,0.0,0.0,67.0,97.0,97.0,3.0,0.24,-0.06,10.35,-0.03,0.01,0.0,26.33,4.16,-1.08,178.77,23.8,48.42615012106535
23821.0,1207.0,-599.0,0.0,0.0,67.0,97.0,97.0,3.0,0.24,-0.07,10.33,-0.03,0.01,0.0,26.31,4.16,-1.08,178.98,23.821,48.42615012106535
23842.0,1270.0,-536.0,0.0,0.0,67.0,97.0,97.0,3.0,0.26,-0.07,10.33,-0.03,0.01,0.01,26.33,4.17,-1.08,179.2,23.842,48.42615012106535
23863.0,1280.0,-526.0,0.0,0.0,67.0,97.0,97.0,3.0,0.25,-0.06,10.34,-0.03,0.01,0.01,26.32,4.17,-1.08,179.42,23.863,48.42615012106535
23884.0,1276.0,-530.0,0.0,0.0,67.0,97.0,97.0,3.0,0.25,-0.08,10.31,-0.03,0.01,0.0,26.32,4.18,-1.08,179.63,23.884,48.42615012106535
23905.0,1306.0,-500.0,0.0,0.0,67.0,97.0,97.0,3.0,0.24,-0.05,10.32,-0.03,0.01,0.0,26.32,4.18,-1.08,179.85,23.905,48.42615012106535
23926.0,1376.0,-430.0,0.0,0.0,67.0,97.0,97.0,3.0,0.24,-0.07,10.31,-0.03,0.01,0.01,26.31,4.19,-1.08,180.07,23.926,48.42615012106535
23947.0,1271.0,-535.0,0.0,0.0,67.0,97.0,97.0,3.0,0.26,-0.08,10.34,-0.03,0.01,0.0,26.32,4.19,-1.09,180.28,23.947,48.42615012106535
23968.0,1301.0,-505.0,0.0,0.0,67.0,97.0,97.0,3.0,0.24,-0.08,10.31,-0.03,0.01,0.0,26.33,4.2,-1.09,180.5,23.968,48.42615012106535
23989.0,1110.0,-696.0,0.0,0.0,67.0,97.0,97.0,3.0,0.26,-0.05,10.34,-0.03,0.01,0.0,26.32,4.2,-1.09,180.72,23.989,48.42615012106535
24010.0,2063.0,257.0,0.0,0.0,67.0,97.0,97.0,3.0,0.24,-0.06,10.32,-0.03,0.01,0.01,26.32,4.21,-1.09,180.94,24.01,48.42615012106535
24031.0,2079.0,273.0,0.0,0.0,67.0,97.0,97.0,3.0,0.23,-0.07,10.34,-0.03,0.01,0.0,26.3,4.21,-1.09,181.15,24.031,48.42615012106535
24052.0,1054.0,-752.0,0.0,0.0,67.0,97.0,97.0,3.0,0.23,-0.07,10.34,-0.03,0.01,0.01,26.3,4.22,-1.09,181.37,24.052,48.42615012106535
24073.0,1309.0,-497.0,0.0,0.0,67.0,97.0,97.0,3.0,0.22,-0.07,10.32,-0.03,0.01,0.01,26.31,4.22,-1.09,181.59,24.073,48.42615012106535
24094.0,1408.0,-398.0,0.0,0.0,67.0,97.0,97.0,3.0,0.24,-0.06,10.32,-0.03,0.01,0.0,26.32,4.23,-1.1,181.8,24.094,48.42615012106535
24115.0,1423.0,-383.0,0.0,0.0,67.0,97.0,97.0,3.0,0.23,-0.04,10.32,-0.03,0.01,0.0,26.3,4.23,-1.1,182.02,24.115,48.42615012106535
24136.0,1459.0,-347.0,0.0,0.0,67.0,97.0,97.0,3.0,0.26,-0.04,10.34,-0.03,0.01,0.0,26.31,4.24,-1.1,182.24,24.136,48.42615012106535
24157.0,4095.0,2289.0,0.0,0.0,67.0,97.0,97.0,3.0,0.25,-0.07,10.31,-0.03,0.01,0.01,26.31,4.24,-1.1,182.45,24.157,48.42615012106535
24178.0,1699.0,-107.0,0.0,0.0,67.0,97.0,97.0,3.0,0.24,-0.08,10.3,-0.03,0.01,0.01,26.31,4.25,-1.1,182.67,24.178,48.42615012106535
24199.0,4095.0,2289.0,0.0,0.0,67.0,97.0,97.0,3.0,0.23,-0.06,10.32,-0.03,0.01,0.01,26.3,4.25,-1.1,182.89,24.199,48.42615012106535
24220.0,2466.0,660.0,0.0,0.0,67.0,97.0,97.0,3.0,0.23,-0.06,10.35,-0.03,0.01,0.0,26.3,4.26,-1.1,183.1,24.22,48.42615012106535
24241.0,4095.0,2289.0,0.0,0.0,67.0,97.0,97.0,3.0,0.23,-0.07,10.32,-0.03,0.01,0.0,26.31,4.26,-1.1,183.32,24.241,48.42615012106535
24262.0,932.0,-874.0,0.0,0.0,67.0,97.0,97.0,3.0,0.23,-0.07,10.34,-0.03,0.01,0.01,26.33,4.27,-1.11,183.54,24.262,48.42615012106535
24283.0,0.0,-1806.0,0.0,0.0,67.0,97.0,97.0,3.0,0.23,-0.05,10.31,-0.03,0.01,0.0,26.31,4.27,-1.11,183.75,24.283,48.42615012106535
24304.0,2304.0,498.0,0.0,0.0,67.0,97.0,97.0,3.0,0.25,-0.08,10.32,-0.03,0.01,0.01,26.31,4.28,-1.11,183.97,24.304,48.42615012106535
24325.0,4095.0,2289.0,0.0,0.0,67.0,97.0,97.0,3.0,0.26,-0.04,10.31,-0.03,0.01,0.0,26.32,4.28,-1.11,184.19,24.325,48.42615012106535
24346.0,4095.0,2289.0,0.0,0.0,67.0,97.0,97.0,3.0,0.23,-0.06,10.3,-0.03,0.01,0.0,26.32,4.29,-1.11,184.4,24.346,48.42615012106535
24367.0,1746.0,-60.0,0.0,0.0,67.0,97.0,97.0,3.0,0.25,-0.07,10.32,-0.03,0.01,0.0,26.32,4.29,-1.11,184.62,24.367,48.42615012106535
24388.0,1990.0,184.0,0.0,0.0,67.0,97.0,97.0,3.0,0.25,-0.07,10.33,-0.03,0.01,0.0,26.34,4.3,-1.11,184.84,24.388,48.42615012106535
24409.0,1931.0,125.0,0.0,0.0,67.0,97.0,97.0,3.0,0.24,-0.07,10.32,-0.03,0.01,0.0,26.32,4.3,-1.11,185.05,24.409,48.42615012106535
24430.0,1933.0,127.0,0.0,0.0,67.0,97.0,97.0,3.0,0.24,-0.07,10.32,-0.03,0.01,0.0,26.3,4.31,-1.12,185.27,24.43,48.42615012106535
24451.0,1926.0,120.0,0.0,0.0,67.0,97.0,97.0,3.0,0.23,-0.06,10.32,-0.03,0.01,0.0,26.31,4.31,-1.12,185.49,24.451,48.42615012106535
24472.0,1931.0,125.0,0.0,0.0,67.0,97.0,97.0,3.0,0.23,-0.06,10.34,-0.03,0.01,0.01,26.32,4.32,-1.12,185.71,24.472,48.42615012106535
24493.0,1941.0,135.0,0.0,0.0,67.0,97.0,97.0,3.0,0.23,-0.07,10.33,-0.03,0.01,0.0,26.32,4.32,-1.12,185.92,24.493,150.37593984962507
24514.0,1974.0,168.0,0.0,0.0,67.0,97.0,97.0,3.0,0.23,-0.05,10.35,-0.03,0.01,0.0,26.32,4.33,-1.12,186.14,24.514,150.37593984962507
24535.0,1852.0,46.0,0.0,0.0,67.0,97.0,97.0,3.0,0.25,-0.07,10.33,-0.03,0.01,0.0,26.3,4.33,-1.12,186.36,24.535,150.37593984962507
24556.0,2127.0,321.0,0.0,0.0,67.0,97.0,97.0,3.0,0.26,-0.05,10.31,-0.03,0.01,0.0,26.31,4.34,-1.12,186.57,24.556,150.37593984962507
24577.0,2224.0,418.0,0.0,0.0,67.0,97.0,97.0,3.0,0.23,-0.06,10.36,-0.03,0.01,0.0,26.32,4.34,-1.13,186.79,24.577,150.37593984962507
24598.0,1744.0,-62.0,0.0,0.0,67.0,97.0,97.0,3.0,0.24,-0.06,10.35,-0.03,0.01,0.0,26.31,4.35,-1.13,187.01,24.598,150.37593984962507
24619.0,1058.0,-748.0,0.0,0.0,67.0,97.0,97.0,3.0,0.23,-0.06,10.35,-0.03,0.01,0.0,26.32,4.35,-1.13,187.23,24.619,150.37593984962507
24640.0,790.0,-1016.0,0.0,0.0,67.0,97.0,97.0,3.0,0.22,-0.08,10.3,-0.03,0.01,0.0,26.29,4.36,-1.13,187.44,24.64,150.37593984962507
24661.0,118.0,-1688.0,0.0,0.0,67.0,97.0,97.0,3.0,0.25,-0.06,10.34,-0.03,0.01,0.0,26.32,4.36,-1.13,187.66,24.661,150.37593984962507
24682.0,3457.0,1651.0,0.0,0.0,67.0,97.0,97.0,3.0,0.23,-0.07,10.33,-0.03,0.01,0.01,26.31,4.37,-1.13,187.88,24.682,150.37593984962507
24703.0,3426.0,1620.0,0.0,0.0,67.0,97.0,97.0,3.0,0.23,-0.06,10.35,-0.03,0.01,0.0,26.32,4.37,-1.13,188.09,24.703,150.37593984962507
24724.0,529.0,-1277.0,0.0,0.0,67.0,97.0,97.0,3.0,0.23,-0.07,10.33,-0.03,0.01,0.0,26.31,4.38,-1.13,188.31,24.724,150.37593984962507
24745.0,1893.0,87.0,0.0,0.0,67.0,97.0,97.0,3.0,0.22,-0.07,10.33,-0.03,0.01,0.0,26.31,4.38,-1.14,188.53,24.745,150.37593984962507
24766.0,2042.0,236.0,0.0,0.0,67.0,97.0,97.0,3.0,0.23,-0.05,10.33,-0.03,0.01,0.01,26.32,4.39,-1.14,188.74,24.766,150.37593984962507
24787.0,1871.0,65.0,0.0,0.0,67.0,97.0,97.0,3.0,0.24,-0.07,10.31,-0.03,0.01,0.0,26.33,4.39,-1.14,188.96,24.787,150.37593984962507
24808.0,2149.0,343.0,0.0,0.0,67.0,97.0,97.0,3.0,0.24,-0.05,10.32,-0.03,0.01,0.01,26.33,4.4,-1.14,189.18,24.808,150.37593984962507
24829.0,1924.0,118.0,0.0,0.0,67.0,97.0,97.0,3.0,0.25,-0.06,10.34,-0.03,0.01,0.0,26.3,4.4,-1.14,189.39,24.829,150.37593984962507
24850.0,1922.0,116.0,0.0,0.0,67.0,97.0,97.0,3.0,0.25,-0.07,10.32,-0.03,0.01,0.0,26.32,4.41,-1.14,189.61,24.85,150.37593984962507
24871.0,1648.0,-158.0,0.0,0.0,67.0,97.0,97.0,3.0,0.23,-0.05,10.33,-0.03,0.01,0.01,26.31,4.41,-1.14,189.83,24.871,150.37593984962507
24892.0,0.0,-1806.0,0.0,0.0,67.0,97.0,97.0,3.0,0.26,-0.08,10.32,-0.03,0.01,0.0,26.31,4.42,-1.15,190.05,24.892,150.37593984962507
24913.0,0.0,-1806.0,0.0,0.0,67.0,97.0,97.0,3.0,0.24,-0.08,10.32,-0.03,0.01,0.0,26.32,4.42,-1.15,190.26,24.913,150.37593984962507
24934.0,1936.0,130.0,0.0,0.0,67.0,97.0,97.0,3.0,0.24,-0.06,10.35,-0.03,0.01,0.0,26.32,4.43,-1.15,190.48,24.934,150.37593984962507
24955.0,1936.0,130.0,0.0,0.0,67.0,97.0,97.0,3.0,0.25,-0.05,10.34,-0.03,0.01,0.0,26.32,4.43,-1.15,190.7,24.955,150.37593984962507
24976.0,2175.0,369.0,0.0,0.0,67.0,97.0,97.0,3.0,0.25,-0.08,10.31,-0.03,0.01,0.0,26.32,4.44,-1.15,190.91,24.976,150.37593984962507
24997.0,901.0,-905.0,0.0,0.0,67.0,97.0,97.0,3.0,0.24,-0.05,10.33,-0.03,0.01,0.01,26.32,4.44,-1.15,191.13,24.997,150.37593984962507
25018.0,1577.0,-229.0,0.0,0.0,67.0,97.0,97.0,3.0,0.22,-0.08,10.33,-0.03,0.01,0.0,26.31,4.45,-1.15,191.35,25.018,150.37593984962507
25039.0,2944.0,1138.0,0.0,0.0,65.0,97.0,99.0,3.0,0.25,-0.08,10.34,-0.03,0.01,0.0,26.31,4.45,-1.16,191.56,25.039,150.37593984962507
25060.0,0.0,-1806.0,0.0,0.0,65.0,97.0,99.0,3.0,0.25,-0.06,10.31,-0.03,0.01,0.0,26.3,4.46,-1.16,191.78,25.06,150.37593984962507
25081.0,1264.0,-542.0,0.0,0.0,65.0,97.0,99.0,3.0,0.24,-0.06,10.35,-0.03,0.01,0.01,26.32,4.46,-1.16,192.0,25.081,79.36507936507934
25102.0,1664.0,-142.0,0.0,0.0,65.0,97.0,99.0,3.0,0.23,-0.04,10.33,-0.03,0.01,0.0,26.31,4.47,-1.16,192.21,25.102,79.36507936507934
25123.0,54.0,-1752.0,0.0,0.0,65.0,97.0,99.0,3.0,0.25,-0.05,10.31,-0.03,0.01,0.0,26.31,4.47,-1.16,192.43,25.123,79.36507936507934
25144.0,2176.0,370.0,0.0,0.0,65.0,97.0,99.0,3.0,0.24,-0.05,10.3,-0.03,0.01,0.0,26.32,4.48,-1.16,192.65,25.144,79.36507936507934
25165.0,2928.0,1122.0,0.0,0.0,65.0,97.0,99.0,3.0,0.23,-0.05,10.35,-0.03,0.01,0.0,26.3,4.48,-1.16,192.87,25.165,79.36507936507934
25186.0,1687.0,-119.0,0.0,0.0,65.0,97.0,99.0,3.0,0.23,-0.07,10.32,-0.03,0.01,0.0,26.31,4.49,-1.16,193.08,25.186,79.36507936507934
25207.0,2116.0,310.0,0.0,0.0,65.0,97.0,99.0,3.0,0.24,-0.06,10.33,-0.03,0.01,0.0,26.29,4.49,-1.16,193.3,25.207,79.36507936507934
25228.0,2858.0,1052.0,0.0,0.0,65.0,97.0,99.0,3.0,0.26,-0.06,10.34,-0.03,0.01,0.0,26.3,4.5,-1.17,193.52,25.228,79.36507936507934
25249.0,1952.0,146.0,0.0,0.0,65.0,97.0,99.0,3.0,0.25,-0.06,10.33,-0.03,0.01,0.0,26.29,4.51,-1.17,193.73,25.249,79.36507936507934
25270.0,1936.0,130.0,0.0,0.0,65.0,97.0,99.0,3.0,0.23,-0.06,10.33,-0.03,0.01,0.0,26.29,4.51,-1.17,193.95,25.27,79.36507936507934
25291.0,1937.0,131.0,0.0,0.0,65.0,97.0,99.0,3.0,0.22,-0.07,10.35,-0.03,0.01,0.01,26.31,4.52,-1.17,194.17,25.291,79.36507936507934
25312.0,1920.0,114.0,0.0,0.0,65.0,97.0,99.0,3.0,0.23,-0.03,10.32,-0.03,0.01,0.01,26.3,4.52,-1.17,194.38,25.312,79.36507936507934
25333.0,2003.0,197.0,0.0,0.0,65.0,97.0,99.0,3.0,0.25,-0.06,10.32,-0.03,0.01,0.01,26.29,4.52,-1.17,194.6,25.333,79.36507936507934
25354.0,1955.0,149.0,0.0,0.0,65.0,97.0,99.0,3.0,0.24,-0.06,10.31,-0.03,0.01,0.0,26.32,4.53,-1.17,194.82,25.354,79.36507936507934
25375.0,1958.0,152.0,0.0,0.0,65.0,97.0,99.0,3.0,0.22,-0.07,10.32,-0.03,0.01,0.0,26.3,4.53,-1.17,195.03,25.375,79.36507936507934
25396.0,1008.0,-798.0,0.0,0.0,65.0,97.0,99.0,3.0,0.24,-0.07,10.32,-0.03,0.01,0.0,26.31,4.54,-1.18,195.25,25.396,79.36507936507934
25417.0,4095.0,2289.0,0.0,0.0,65.0,97.0,99.0,3.0,0.24,-0.08,10.3,-0.03,0.01,0.0,26.32,4.54,-1.18,195.47,25.417,79.36507936507934
25438.0,3974.0,2168.0,0.0,0.0,65.0,97.0,99.0,3.0,0.24,-0.06,10.33,-0.03,0.01,0.01,26.32,4.55,-1.18,195.68,25.438,79.36507936507934
25459.0,4095.0,2289.0,0.0,0.0,65.0,97.0,99.0,3.0,0.25,-0.08,10.33,-0.03,0.01,0.0,26.29,4.56,-1.18,195.9,25.459,79.36507936507934
25480.0,0.0,-1806.0,0.0,0.0,65.0,97.0,99.0,3.0,0.24,-0.07,10.34,-0.03,0.01,0.0,26.32,4.56,-1.18,196.12,25.48,79.36507936507934
25501.0,0.0,-1806.0,0.0,0.0,65.0,97.0,99.0,3.0,0.23,-0.07,10.31,-0.03,0.01,0.0,26.32,4.57,-1.18,196.33,25.501,79.36507936507934
25522.0,545.0,-1261.0,0.0,0.0,65.0,97.0,99.0,3.0,0.24,-0.07,10.34,-0.03,0.01,0.0,26.31,4.57,-1.18,196.55,25.522,79.36507936507934
25543.0,1920.0,114.0,0.0,0.0,65.0,97.0,99.0,3.0,0.23,-0.07,10.32,-0.03,0.01,0.0,26.32,4.58,-1.19,196.77,25.543,79.36507936507934
25564.0,1805.0,-1.0,0.0,0.0,65.0,97.0,99.0,3.0,0.24,-0.07,10.32,-0.03,0.01,0.01,26.32,4.58,-1.19,196.99,25.564,79.36507936507934
25585.0,3659.0,1853.0,0.0,0.0,65.0,97.0,99.0,3.0,0.25,-0.06,10.34,-0.03,0.01,0.01,26.32,4.59,-1.19,197.2,25.585,79.36507936507934
25606.0,3024.0,1218.0,0.0,0.0,65.0,97.0,99.0,3.0,0.22,-0.08,10.33,-0.03,0.01,0.0,26.3,4.59,-1.19,197.42,25.606,79.36507936507934
25627.0,2802.0,996.0,0.0,0.0,65.0,97.0,99.0,3.0,0.23,-0.07,10.33,-0.03,0.01,0.0,26.3,4.6,-1.19,197.64,25.627,79.36507936507934
25648.0,458.0,-1348.0,0.0,0.0,65.0,97.0,99.0,3.0,0.25,-0.06,10.33,-0.03,0.01,0.0,26.31,4.6,-1.19,197.85,25.648,79.36507936507934
25669.0,2145.0,339.0,0.0,0.0,65.0,97.0,99.0,3.0,0.24,-0.06,10.36,-0.03,0.01,0.01,26.32,4.61,-1.19,198.07,25.669,79.36507936507934
25690.0,1866.0,60.0,0.0,0.0,65.0,97.0,99.0,3.0,0.24,-0.05,10.32,-0.03,0.01,0.01,26.32,4.61,-1.2,198.29,25.69,79.36507936507934
25711.0,1654.0,-152.0,0.0,0.0,65.0,97.0,99.0,3.0,0.24,-0.05,10.31,-0.03,0.01,0.0,26.32,4.62,-1.2,198.5,25.711,79.36507936507934
25732.0,1923.0,117.0,0.0,0.0,65.0,97.0,99.0,3.0,0.25,-0.08,10.34,-0.03,0.01,0.0,26.31,4.62,-1.2,198.72,25.732,79.36507936507934
25753.0,1936.0,130.0,0.0,0.0,65.0,97.0,99.0,3.0,0.26,-0.07,10.33,-0.03,0.01,0.0,26.32,4.63,-1.2,198.94,25.753,79.36507936507934
25774.0,1934.0,128.0,0.0,0.0,65.0,97.0,99.0,3.0,0.25,-0.06,10.31,-0.03,0.01,0.0,26.32,4.63,-1.2,199.16,25.774,95.23809523809486
25795.0,1914.0,108.0,0.0,0.0,65.0,97.0,99.0,3.0,0.24,-0.05,10.32,-0.03,0.01,0.0,26.32,4.64,-1.2,199.37,25.795,95.23809523809486
25816.0,2329.0,523.0,0.0,0.0,65.0,97.0,99.0,3.0,0.23,-0.05,10.33,-0.03,0.01,0.0,26.3,4.64,-1.2,199.59,25.816,95.23809523809486
25837.0,0.0,-1806.0,0.0,0.0,65.0,97.0,99.0,3.0,0.24,-0.06,10.3,-0.03,0.01,0.0,26.32,4.65,-1.2,199.81,25.837,95.23809523809486
25858.0,0.0,-1806.0,0.0,0.0,65.0,97.0,99.0,3.0,0.26,-0.07,10.34,-0.03,0.01,0.0,26.31,4.65,-1.21,200.02,25.858,95.23809523809486
25879.0,0.0,-1806.0,0.0,0.0,65.0,97.0,99.0,3.0,0.22,-0.05,10.31,-0.03,0.01,0.0,26.31,4.66,-1.21,200.24,25.879,95.23809523809486
25900.0,0.0,-1806.0,0.0,0.0,65.0,97.0,99.0,3.0,0.26,-0.04,10.35,-0.03,0.01,0.0,26.3,4.66,-1.21,200.46,25.9,95.23809523809486
25921.0,1968.0,162.0,0.0,0.0,65.0,97.0,99.0,3.0,0.25,-0.07,10.32,-0.03,0.01,0.0,26.31,4.67,-1.21,200.67,25.921,95.23809523809486
25942.0,1963.0,157.0,0.0,0.0,65.0,97.0,99.0,3.0,0.23,-0.07,10.33,-0.03,0.01,0.0,26.33,4.67,-1.21,200.89,25.942,95.23809523809486
25963.0,1906.0,100.0,0.0,0.0,65.0,97.0,99.0,3.0,0.23,-0.08,10.32,-0.03,0.01,0.0,26.33,4.68,-1.21,201.11,25.963,95.23809523809486
25984.0,1924.0,118.0,0.0,0.0,65.0,97.0,99.0,3.0,0.24,-0.07,10.32,-0.03,0.01,0.0,26.31,4.68,-1.21,201.32,25.984,95.23809523809486
26005.0,1938.0,132.0,0.0,0.0,65.0,97.0,99.0,3.0,0.23,-0.09,10.34,-0.03,0.01,0.0,26.32,4.69,-1.22,201.54,26.005,95.23809523809486
26026.0,1908.0,102.0,0.0,0.0,65.0,97.0,99.0,3.0,0.26,-0.06,10.33,-0.03,0.01,0.0,26.31,4.69,-1.22,201.76,26.026,95.23809523809486
26047.0,1919.0,113.0,0.0,0.0,65.0,97.0,99.0,3.0,0.24,-0.07,10.34,-0.03,0.01,0.0,26.31,4.7,-1.22,201.97,26.047,95.23809523809486
26068.0,0.0,-1806.0,0.0,0.0,65.0,97.0,99.0,3.0,0.25,-0.06,10.34,-0.03,0.01,0.0,26.32,4.7,-1.22,202.19,26.068,95.23809523809486
26089.0,0.0,-1806.0,0.0,0.0,0.0,0.0,0.0,0.0,0.24,-0.06,10.32,-0.03,0.01,0.0,26.32,4.71,-1.22,202.41,26.089,95.23809523809486
26128.0,3001.0,1195.0,0.0,0.0,65.0,97.0,99.0,3.0,0.23,-0.04,10.32,-0.03,0.01,0.0,26.31,4.72,-1.22,202.81,26.128,95.23809523809486
26149.0,1220.0,-586.0,0.0,0.0,65.0,97.0,99.0,3.0,0.23,-0.06,10.33,-0.03,0.01,0.0,26.32,4.72,-1.22,203.03,26.149,95.23809523809486
26170.0,2236.0,430.0,0.0,0.0,65.0,97.0,99.0,3.0,0.25,-0.07,10.33,-0.03,0.01,0.0,26.31,4.73,-1.23,203.24,26.17,95.23809523809486
26191.0,1928.0,122.0,0.0,0.0,65.0,97.0,99.0,3.0,0.24,-0.07,10.33,-0.03,0.01,0.0,26.32,4.73,-1.23,203.46,26.191,95.23809523809486
26212.0,2059.0,253.0,0.0,0.0,65.0,97.0,99.0,3.0,0.25,-0.07,10.35,-0.03,0.01,0.0,26.32,4.74,-1.23,203.68,26.212,95.23809523809486
26233.0,1862.0,56.0,0.0,0.0,65.0,97.0,99.0,3.0,0.23,-0.05,10.32,-0.03,0.01,0.0,26.31,4.74,-1.23,203.9,26.233,95.23809523809486
26254.0,0.0,-1806.0,0.0,0.0,0.0,0.0,0.0,0.0,0.24,-0.06,10.32,-0.03,0.01,0.01,26.31,4.75,-1.23,204.11,26.254,95.23809523809486
26293.0,1919.0,113.0,0.0,0.0,65.0,97.0,99.0,3.0,0.25,-0.06,10.32,-0.03,0.01,0.0,26.32,4.76,-1.23,204.52,26.293,95.23809523809486
26314.0,1599.0,-207.0,0.0,0.0,65.0,97.0,99.0,3.0,0.25,-0.06,10.35,-0.03,0.01,0.0,26.3,4.76,-1.23,204.73,26.314,95.23809523809486
26335.0,1874.0,68.0,0.0,0.0,65.0,97.0,99.0,3.0,0.22,-0.04,10.32,-0.03,0.01,0.0,26.32,4.77,-1.24,204.95,26.335,95.23809523809486
26356.0,1885.0,79.0,0.0,0.0,65.0,97.0,99.0,3.0,0.24,-0.07,10.34,-0.03,0.01,0.0,26.32,4.77,-1.24,205.17,26.356,95.23809523809486
26377.0,2445.0,639.0,0.0,0.0,65.0,97.0,99.0,3.0,0.23,-0.05,10.35,-0.03,0.01,0.0,26.32,4.78,-1.24,205.38,26.377,95.23809523809486
26398.0,1835.0,29.0,0.0,0.0,65.0,97.0,99.0,3.0,0.23,-0.06,10.33,-0.03,0.01,0.0,26.31,4.78,-1.24,205.6,26.398,95.23809523809486
26419.0,3029.0,1223.0,0.0,0.0,65.0,97.0,99.0,3.0,0.24,-0.06,10.36,-0.03,0.01,0.0,26.3,4.79,-1.24,205.82,26.419,95.23809523809486
26440.0,2781.0,975.0,0.0,0.0,65.0,97.0,99.0,3.0,0.24,-0.06,10.35,-0.03,0.01,0.0,26.3,4.79,-1.24,206.04,26.44,95.23809523809486
26461.0,1973.0,167.0,0.0,0.0,65.0,97.0,99.0,3.0,0.23,-0.07,10.33,-0.03,0.01,0.01,26.32,4.8,-1.24,206.25,26.461,95.23809523809486
26482.0,2090.0,284.0,0.0,0.0,65.0,97.0,99.0,3.0,0.25,-0.06,10.32,-0.03,0.01,0.0,26.3,4.8,-1.24,206.47,26.482,95.23809523809486
26503.0,1963.0,157.0,0.0,0.0,65.0,97.0,99.0,3.0,0.23,-0.06,10.33,-0.03,0.01,0.0,26.3,4.81,-1.25,206.69,26.503,95.23809523809486
26524.0,1618.0,-188.0,0.0,0.0,65.0,97.0,99.0,3.0,0.23,-0.04,10.31,-0.03,0.01,0.0,26.31,4.81,-1.25,206.9,26.524,95.23809523809486
26545.0,2358.0,552.0,0.0,0.0,65.0,97.0,99.0,3.0,0.24,-0.08,10.33,-0.03,0.01,0.0,26.31,4.82,-1.25,207.12,26.545,95.23809523809486
26566.0,2162.0,356.0,0.0,0.0,65.0,97.0,99.0,3.0,0.23,-0.05,10.31,-0.03,0.01,0.0,26.32,4.82,-1.25,207.34,26.566,95.23809523809486
26587.0,3115.0,1309.0,0.0,0.0,65.0,97.0,99.0,3.0,0.26,-0.06,10.33,-0.03,0.01,0.0,26.32,4.83,-1.25,207.55,26.587,95.23809523809486
26608.0,2468.0,662.0,0.0,0.0,65.0,97.0,99.0,3.0,0.26,-0.06,10.32,-0.03,0.01,0.0,26.32,4.83,-1.25,207.77,26.608,57.47126436781626
