arduino_ms,PPG_HR,PPG_O2,PPG_Conf,PPG_Status,MPU_AccelX,MPU_AccelY,MPU_AccelZ,MPU_GyroX,MPU_GyroY,MPU_GyroZ,MPU_Temp,MPU_VelX,MPU_VelY,MPU_VelZ,py_timestamp,real_time
1065400.0,75.0,100.0,99.0,3.0,-6.32,4.86,5.82,-0.03,0.02,0.01,21.57,-1555.72,595.91,9653.67,1755696205.5481682,14:23:25
1065422.0,75.0,100.0,99.0,3.0,-6.31,4.84,5.83,-0.04,0.0,0.0,21.56,-1555.86,596.02,9653.8,1755696205.606023,14:23:25
1065443.0,75.0,100.0,99.0,3.0,-6.25,4.83,5.75,-0.04,0.0,-0.0,21.57,-1555.99,596.12,9653.92,1755696205.663671,14:23:25
1065464.0,75.0,100.0,99.0,3.0,-6.24,4.87,5.78,-0.04,0.02,-0.0,21.58,-1556.12,596.22,9654.04,1755696205.7242415,14:23:25
1065485.0,76.0,100.0,98.0,3.0,-6.31,4.85,5.83,-0.04,0.04,0.01,21.57,-1556.26,596.33,9654.16,1755696205.780638,14:23:25
1065506.0,76.0,100.0,98.0,3.0,-6.34,4.85,5.87,-0.03,0.01,0.0,21.55,-1556.39,596.43,9654.29,1755696205.897916,14:23:25
1065528.0,76.0,100.0,98.0,3.0,-6.28,4.88,5.84,-0.03,0.0,-0.0,21.56,-1556.53,596.53,9654.41,1755696205.9584653,14:23:25
1065550.0,76.0,100.0,98.0,3.0,-6.28,4.87,5.82,-0.04,0.03,0.0,21.56,-1556.67,596.64,9654.54,1755696206.020689,14:23:26
1065571.0,76.0,100.0,98.0,3.0,-6.27,4.86,5.84,-0.04,0.03,0.01,21.57,-1556.8,596.74,9654.66,1755696206.1005926,14:23:26
1065593.0,76.0,100.0,98.0,3.0,-6.28,4.86,5.83,-0.03,0.0,-0.0,21.57,-1556.94,596.85,9654.79,1755696206.1516292,14:23:26
1065614.0,76.0,100.0,98.0,3.0,-6.27,4.86,5.81,-0.03,-0.01,0.0,21.55,-1557.07,596.95,9654.91,1755696206.4093685,14:23:26
1065635.0,76.0,100.0,98.0,3.0,-6.27,4.85,5.8,-0.03,-0.0,0.0,21.56,-1557.2,597.05,9655.04,1755696206.4094422,14:23:26
1065657.0,76.0,100.0,98.0,3.0,-6.31,4.83,5.83,-0.02,0.01,-0.0,21.55,-1557.34,597.16,9655.16,1755696206.6166127,14:23:26
1065678.0,76.0,100.0,98.0,3.0,-6.34,4.84,5.8,-0.02,0.0,-0.0,21.56,-1557.47,597.26,9655.29,1755696206.666353,14:23:26
1065700.0,76.0,100.0,98.0,3.0,-6.3,4.83,5.83,-0.02,-0.01,-0.0,21.55,-1557.61,597.37,9655.41,1755696206.8260818,14:23:26
1065721.0,76.0,100.0,98.0,3.0,-6.31,4.82,5.81,-0.02,0.0,-0.0,21.55,-1557.74,597.47,9655.54,1755696206.9206738,14:23:26
1065742.0,76.0,100.0,98.0,3.0,-6.33,4.85,5.81,-0.02,0.01,-0.0,21.56,-1557.87,597.57,9655.66,1755696207.021995,14:23:27
1065764.0,76.0,100.0,98.0,3.0,-6.33,4.86,5.86,-0.02,0.01,-0.0,21.55,-1558.01,597.68,9655.79,1755696207.1246796,14:23:27
1065785.0,76.0,100.0,98.0,3.0,-6.32,4.89,5.84,-0.02,0.01,0.0,21.57,-1558.15,597.78,9655.91,1755696207.1819847,14:23:27
1065806.0,76.0,100.0,98.0,3.0,-6.3,4.92,5.85,-0.02,0.01,0.0,21.57,-1558.28,597.88,9656.03,1755696207.3315706,14:23:27
1065828.0,76.0,100.0,98.0,3.0,-6.28,4.89,5.86,-0.02,0.01,0.0,21.57,-1558.42,597.99,9656.16,1755696207.3918173,14:23:27
1065849.0,76.0,100.0,98.0,3.0,-6.27,4.89,5.82,-0.02,-0.0,0.01,21.55,-1558.55,598.09,9656.28,1755696207.5373824,14:23:27
1065871.0,76.0,100.0,98.0,3.0,-6.29,4.86,5.83,-0.01,0.0,0.0,21.55,-1558.69,598.2,9656.41,1755696207.6007307,14:23:27
1065892.0,76.0,100.0,98.0,3.0,-6.29,4.87,5.84,-0.0,-0.0,0.0,21.55,-1558.82,598.3,9656.54,1755696207.7411513,14:23:27
1065913.0,76.0,100.0,98.0,3.0,-6.27,4.85,5.85,-0.01,-0.02,0.0,21.55,-1558.95,598.41,9656.66,1755696207.7930396,14:23:27
1065935.0,76.0,100.0,98.0,3.0,-6.31,4.83,5.77,-0.02,-0.02,0.0,21.56,-1559.09,598.51,9656.79,1755696207.9465804,14:23:27
1065956.0,76.0,100.0,98.0,3.0,-6.3,4.84,5.77,-0.01,-0.01,-0.0,21.55,-1559.22,598.61,9656.91,1755696207.9960759,14:23:27
1065977.0,76.0,100.0,98.0,3.0,-6.32,4.86,5.8,-0.0,0.01,-0.01,21.57,-1559.35,598.72,9657.03,1755696208.1500323,14:23:28
1065998.0,76.0,100.0,98.0,3.0,-6.29,4.86,5.81,-0.01,-0.0,-0.0,21.56,-1559.49,598.82,9657.15,1755696208.254841,14:23:28
1066019.0,76.0,100.0,98.0,3.0,-6.28,4.85,5.76,-0.01,-0.0,-0.01,21.56,-1559.62,598.92,9657.27,1755696208.308415,14:23:28
1066041.0,76.0,100.0,98.0,3.0,-6.29,4.86,5.82,-0.01,0.01,-0.01,21.54,-1559.76,599.03,9657.4,1755696208.4574764,14:23:28
1066063.0,76.0,100.0,98.0,3.0,-6.27,4.88,5.8,-0.02,0.01,-0.0,21.55,-1559.89,599.13,9657.53,1755696208.5642495,14:23:28
1066084.0,76.0,100.0,98.0,3.0,-6.28,4.84,5.77,-0.02,0.0,-0.0,21.55,-1560.03,599.24,9657.65,1755696208.6616886,14:23:28
1066106.0,76.0,100.0,98.0,3.0,-6.28,4.86,5.8,-0.02,0.01,-0.01,21.56,-1560.16,599.34,9657.77,1755696208.7138567,14:23:28
1066128.0,76.0,100.0,98.0,3.0,-6.31,4.85,5.86,-0.01,0.01,-0.01,21.53,-1560.3,599.45,9657.9,1755696208.866383,14:23:28
1066149.0,76.0,100.0,98.0,3.0,-6.3,4.88,5.87,-0.02,-0.0,-0.01,21.56,-1560.44,599.55,9658.03,1755696208.9215558,14:23:28
1066171.0,76.0,100.0,98.0,3.0,-6.29,4.89,5.83,-0.03,-0.01,-0.01,21.54,-1560.57,599.66,9658.15,1755696209.074869,14:23:29
1066192.0,76.0,100.0,98.0,3.0,-6.27,4.87,5.79,-0.02,0.02,-0.01,21.55,-1560.71,599.76,9658.28,1755696209.126987,14:23:29
1066213.0,76.0,100.0,98.0,3.0,-6.29,4.86,5.84,-0.02,0.01,-0.0,21.55,-1560.84,599.86,9658.4,1755696209.2765546,14:23:29
1066234.0,76.0,100.0,98.0,3.0,-6.29,4.85,5.81,-0.03,-0.01,-0.0,21.57,-1560.97,599.96,9658.52,1755696209.330628,14:23:29
1066256.0,76.0,100.0,98.0,3.0,-6.28,4.81,5.78,-0.02,-0.0,-0.01,21.56,-1561.11,600.07,9658.65,1755696209.4819694,14:23:29
1066277.0,76.0,100.0,98.0,3.0,-6.31,4.85,5.82,-0.02,0.01,-0.01,21.55,-1561.24,600.17,9658.77,1755696209.5892103,14:23:29
1066299.0,76.0,100.0,98.0,3.0,-6.34,4.85,5.84,-0.03,0.0,-0.0,21.56,-1561.38,600.28,9658.9,1755696209.6434698,14:23:29
1066320.0,76.0,100.0,98.0,3.0,-6.31,4.85,5.83,-0.03,0.0,-0.0,21.56,-1561.51,600.38,9659.02,1755696209.7868001,14:23:29
1066341.0,76.0,100.0,98.0,3.0,-6.28,4.85,5.78,-0.03,0.02,-0.0,21.55,-1561.64,600.48,9659.14,1755696209.9942517,14:23:29
1066362.0,77.0,100.0,99.0,3.0,-6.3,4.83,5.8,-0.03,0.03,-0.0,21.56,-1561.78,600.58,9659.26,1755696210.056597,14:23:30
1066383.0,77.0,100.0,99.0,3.0,-6.31,4.83,5.82,-0.03,0.02,-0.0,21.56,-1561.91,600.69,9659.39,1755696210.107087,14:23:30
1066404.0,77.0,100.0,99.0,3.0,-6.3,4.83,5.82,-0.03,0.01,-0.0,21.55,-1562.04,600.79,9659.51,1755696210.1969292,14:23:30
1066425.0,77.0,100.0,99.0,3.0,-6.33,4.84,5.82,-0.03,0.01,-0.0,21.53,-1562.17,600.89,9659.63,1755696210.250194,14:23:30
1066446.0,77.0,100.0,99.0,3.0,-6.34,4.83,5.83,-0.02,0.02,-0.0,21.55,-1562.31,600.99,9659.75,1755696210.3051448,14:23:30
1066467.0,77.0,100.0,99.0,3.0,-6.32,4.86,5.8,-0.02,0.02,-0.0,21.54,-1562.44,601.09,9659.87,1755696210.4125047,14:23:30
1066488.0,77.0,100.0,99.0,3.0,-6.31,4.82,5.79,-0.02,0.02,-0.0,21.56,-1562.57,601.19,9660.0,1755696210.5083678,14:23:30
1066509.0,77.0,100.0,99.0,3.0,-6.29,4.82,5.79,-0.03,0.01,0.0,21.56,-1562.7,601.29,9660.12,1755696210.6093574,14:23:30
1066530.0,77.0,100.0,99.0,3.0,-6.32,4.81,5.84,-0.02,0.01,-0.0,21.55,-1562.84,601.4,9660.24,1755696210.7105815,14:23:30
1066552.0,77.0,100.0,99.0,3.0,-6.32,4.84,5.84,-0.02,-0.0,-0.0,21.57,-1562.98,601.5,9660.37,1755696210.76556,14:23:30
1066574.0,77.0,100.0,99.0,3.0,-6.34,4.86,5.84,-0.02,-0.0,0.0,21.55,-1563.11,601.61,9660.5,1755696210.91984,14:23:30
1066595.0,77.0,100.0,99.0,3.0,-6.33,4.85,5.81,-0.02,0.01,0.0,21.54,-1563.25,601.71,9660.62,1755696210.9747548,14:23:30
1066616.0,77.0,100.0,99.0,3.0,-6.32,4.84,5.79,-0.02,0.0,0.0,21.56,-1563.38,601.81,9660.74,1755696211.0347745,14:23:31
1066638.0,77.0,100.0,99.0,3.0,-6.33,4.84,5.79,-0.02,0.0,0.0,21.55,-1563.52,601.92,9660.87,1755696211.0920947,14:23:31
1066659.0,77.0,100.0,99.0,3.0,-6.34,4.85,5.83,-0.02,0.0,0.0,21.55,-1563.65,602.02,9660.99,1755696211.2265387,14:23:31
1066680.0,77.0,100.0,99.0,3.0,-6.31,4.81,5.84,-0.02,-0.0,0.01,21.55,-1563.79,602.12,9661.11,1755696211.3296525,14:23:31
1066701.0,77.0,100.0,99.0,3.0,-6.31,4.81,5.8,-0.02,0.0,0.01,21.55,-1563.92,602.22,9661.24,1755696211.53471,14:23:31
1066722.0,77.0,100.0,99.0,3.0,-6.32,4.82,5.79,-0.02,0.01,0.01,21.55,-1564.05,602.32,9661.36,1755696211.6311817,14:23:31
1066743.0,77.0,100.0,99.0,3.0,-6.31,4.84,5.82,-0.02,0.01,0.01,21.55,-1564.18,602.43,9661.48,1755696211.690677,14:23:31
1066806.0,77.0,100.0,99.0,3.0,-6.33,4.85,5.83,-0.01,0.02,0.0,21.54,-1564.58,602.73,9661.85,1755696211.9411438,14:23:31
1066828.0,77.0,100.0,99.0,3.0,-6.32,4.87,5.85,-0.02,0.01,0.01,21.56,-1564.72,602.84,9661.98,1755696211.9928145,14:23:31
1066849.0,0.0,100.0,99.0,3.0,-6.33,4.84,5.85,-0.04,-0.01,0.01,21.55,-1564.85,602.94,9662.1,1755696212.045411,14:23:32
1066870.0,0.0,100.0,99.0,3.0,-6.28,4.82,5.79,-0.03,0.01,0.01,21.57,-1564.98,603.04,9662.22,1755696212.142758,14:23:32
1066891.0,0.0,100.0,99.0,3.0,-6.3,4.81,5.81,-0.03,0.02,0.01,21.57,-1565.12,603.14,9662.34,1755696212.2481737,14:23:32
1066912.0,77.0,100.0,99.0,3.0,-6.3,4.8,5.79,-0.03,0.0,0.01,21.55,-1565.25,603.24,9662.46,1755696212.3026474,14:23:32
1066933.0,77.0,100.0,99.0,3.0,-6.28,4.82,5.77,-0.02,-0.0,0.01,21.57,-1565.38,603.34,9662.59,1755696212.4884806,14:23:32
1066955.0,77.0,100.0,99.0,3.0,-6.32,4.84,5.76,-0.02,0.01,0.01,21.54,-1565.52,603.45,9662.71,1755696212.5571811,14:23:32
1066977.0,77.0,100.0,99.0,3.0,-6.36,4.84,5.83,-0.02,0.01,0.01,21.57,-1565.66,603.56,9662.84,1755696212.6078658,14:23:32
1066998.0,77.0,100.0,99.0,3.0,-6.31,4.83,5.82,-0.03,0.0,0.01,21.56,-1565.79,603.66,9662.96,1755696212.862143,14:23:32
1067019.0,77.0,100.0,99.0,3.0,-6.3,4.85,5.78,-0.02,0.01,0.01,21.55,-1565.92,603.76,9663.08,1755696212.8622088,14:23:32
1067040.0,77.0,100.0,99.0,3.0,-6.3,4.87,5.84,-0.02,0.03,0.01,21.55,-1566.06,603.86,9663.21,1755696212.963252,14:23:32
1067061.0,77.0,100.0,99.0,3.0,-6.3,4.85,5.81,-0.03,0.01,0.01,21.56,-1566.19,603.96,9663.33,1755696213.0692894,14:23:33
1067083.0,77.0,100.0,99.0,3.0,-6.26,4.84,5.8,-0.03,-0.01,0.01,21.57,-1566.33,604.07,9663.46,1755696213.1750877,14:23:33
1067104.0,77.0,100.0,99.0,3.0,-6.29,4.86,5.77,-0.01,0.01,0.0,21.57,-1566.46,604.17,9663.58,1755696213.2717185,14:23:33
1067125.0,77.0,100.0,99.0,3.0,-6.34,4.85,5.82,-0.02,0.01,0.01,21.57,-1566.59,604.27,9663.7,1755696213.373329,14:23:33
1067146.0,77.0,100.0,99.0,3.0,-6.32,4.8,5.86,-0.02,-0.01,0.01,21.56,-1566.72,604.38,9663.82,1755696213.4254317,14:23:33
1067168.0,77.0,100.0,99.0,3.0,-6.31,4.84,5.8,-0.01,-0.01,0.01,21.54,-1566.86,604.48,9663.95,1755696213.478923,14:23:33
1067190.0,77.0,100.0,99.0,3.0,-6.27,4.87,5.77,-0.01,0.01,0.01,21.57,-1567.0,604.59,9664.08,1755696213.5774226,14:23:33
1067211.0,77.0,100.0,99.0,3.0,-6.31,4.85,5.79,-0.01,0.01,0.01,21.56,-1567.13,604.69,9664.2,1755696213.6799603,14:23:33
1067233.0,77.0,100.0,99.0,3.0,-6.31,4.85,5.82,-0.01,-0.01,0.01,21.56,-1567.27,604.8,9664.33,1755696213.7831728,14:23:33
1067254.0,77.0,100.0,99.0,3.0,-6.26,4.89,5.82,-0.01,-0.01,0.01,21.56,-1567.41,604.9,9664.45,1755696213.8886068,14:23:33
1067276.0,77.0,100.0,99.0,3.0,-6.24,4.89,5.79,-0.02,0.0,0.01,21.55,-1567.54,605.01,9664.58,1755696213.9429567,14:23:33
1067297.0,77.0,100.0,99.0,3.0,-6.32,4.85,5.8,-0.02,0.0,0.01,21.57,-1567.67,605.11,9664.7,1755696214.0908842,14:23:34
1067318.0,77.0,100.0,99.0,3.0,-6.29,4.88,5.76,-0.02,-0.0,0.01,21.58,-1567.81,605.21,9664.82,1755696214.1920006,14:23:34
1067340.0,77.0,100.0,99.0,3.0,-6.31,4.87,5.76,-0.03,0.0,0.01,21.56,-1567.95,605.32,9664.95,1755696214.2949154,14:23:34
1067361.0,77.0,100.0,99.0,3.0,-6.29,4.84,5.77,-0.03,0.02,0.01,21.57,-1568.08,605.42,9665.07,1755696214.3954628,14:23:34
1067382.0,77.0,100.0,99.0,3.0,-6.31,4.87,5.77,-0.02,0.02,0.0,21.57,-1568.21,605.52,9665.19,1755696214.5060155,14:23:34
1067403.0,77.0,100.0,99.0,3.0,-6.28,4.87,5.81,-0.03,0.01,0.01,21.58,-1568.34,605.62,9665.31,1755696214.5566757,14:23:34
1067424.0,77.0,100.0,99.0,3.0,-6.31,4.87,5.79,-0.03,0.02,0.01,21.55,-1568.47,605.73,9665.43,1755696214.608317,14:23:34
1067445.0,77.0,100.0,99.0,3.0,-6.28,4.89,5.83,-0.03,0.02,0.0,21.56,-1568.61,605.83,9665.56,1755696214.7078793,14:23:34
1067467.0,77.0,100.0,99.0,3.0,-6.27,4.89,5.82,-0.04,0.01,0.0,21.56,-1568.74,605.94,9665.68,1755696214.8059995,14:23:34
1067490.0,77.0,100.0,99.0,3.0,-6.3,4.9,5.79,-0.04,0.01,0.01,21.55,-1568.89,606.05,9665.82,1755696214.860044,14:23:34
1067512.0,77.0,100.0,99.0,3.0,-6.28,4.88,5.82,-0.04,0.01,0.01,21.57,-1569.03,606.16,9665.95,1755696215.009907,14:23:35
1067533.0,77.0,100.0,99.0,3.0,-6.29,4.85,5.8,-0.04,0.01,0.01,21.56,-1569.16,606.26,9666.07,1755696215.1140704,14:23:35
1067555.0,77.0,100.0,99.0,3.0,-6.31,4.83,5.79,-0.03,0.01,0.01,21.55,-1569.3,606.37,9666.2,1755696215.2186956,14:23:35
1067576.0,77.0,100.0,99.0,3.0,-6.32,4.84,5.84,-0.02,0.01,0.0,21.55,-1569.43,606.47,9666.32,1755696215.3235507,14:23:35
1067597.0,77.0,100.0,99.0,3.0,-6.28,4.89,5.85,-0.03,-0.0,0.01,21.57,-1569.56,606.57,9666.44,1755696215.3817356,14:23:35
1067618.0,77.0,100.0,99.0,3.0,-6.28,4.87,5.77,-0.04,-0.0,0.01,21.55,-1569.69,606.67,9666.56,1755696215.646682,14:23:35
1067639.0,77.0,100.0,99.0,3.0,-6.27,4.86,5.77,-0.03,0.01,0.01,21.56,-1569.83,606.77,9666.68,1755696215.646805,14:23:35
1067660.0,77.0,100.0,99.0,3.0,-6.28,4.86,5.84,-0.02,0.01,0.0,21.56,-1569.96,606.88,9666.81,1755696215.7352717,14:23:35
1067682.0,77.0,100.0,99.0,3.0,-6.3,4.87,5.83,-0.03,0.0,0.01,21.56,-1570.1,606.98,9666.93,1755696215.7846878,14:23:35
1067704.0,77.0,100.0,99.0,3.0,-6.29,4.83,5.78,-0.04,0.0,0.01,21.55,-1570.23,607.09,9667.06,1755696215.8329954,14:23:35
1067725.0,77.0,100.0,99.0,3.0,-6.27,4.83,5.78,-0.03,0.02,0.0,21.54,-1570.37,607.19,9667.18,1755696215.8840215,14:23:35
1067747.0,77.0,100.0,99.0,3.0,-6.26,4.87,5.82,-0.03,0.01,0.01,21.55,-1570.5,607.3,9667.31,1755696216.0373936,14:23:36
1067768.0,77.0,100.0,99.0,3.0,-6.27,4.85,5.8,-0.04,0.01,0.01,21.55,-1570.64,607.4,9667.43,1755696216.0909653,14:23:36
1067789.0,77.0,100.0,99.0,3.0,-6.29,4.9,5.8,-0.03,0.02,0.0,21.56,-1570.77,607.5,9667.55,1755696216.2418213,14:23:36
1067810.0,77.0,100.0,99.0,3.0,-6.32,4.89,5.83,-0.03,0.02,0.01,21.58,-1570.9,607.61,9667.68,1755696216.3411298,14:23:36
1067831.0,77.0,100.0,99.0,3.0,-6.32,4.87,5.86,-0.04,0.01,0.01,21.57,-1571.03,607.71,9667.8,1755696216.44408,14:23:36
1067852.0,77.0,100.0,99.0,3.0,-6.27,4.85,5.79,-0.04,0.01,0.01,21.54,-1571.17,607.81,9667.92,1755696216.6547446,14:23:36
1067873.0,77.0,100.0,99.0,3.0,-6.26,4.86,5.78,-0.03,0.02,0.01,21.56,-1571.3,607.91,9668.04,1755696216.7073298,14:23:36
1067895.0,77.0,100.0,99.0,3.0,-6.29,4.85,5.81,-0.03,0.02,0.01,21.56,-1571.43,608.02,9668.17,1755696216.8548746,14:23:36
1067916.0,77.0,100.0,99.0,3.0,-6.29,4.86,5.81,-0.03,0.0,0.01,21.55,-1571.57,608.12,9668.29,1755696216.962634,14:23:36
1067937.0,77.0,100.0,99.0,3.0,-6.23,4.86,5.79,-0.03,0.0,0.0,21.56,-1571.7,608.22,9668.42,1755696217.0701392,14:23:37
1067959.0,77.0,100.0,99.0,3.0,-6.3,4.86,5.8,-0.03,0.03,0.0,21.54,-1571.84,608.33,9668.54,1755696217.164785,14:23:37
1067980.0,77.0,100.0,99.0,3.0,-6.31,4.87,5.88,-0.03,0.02,0.01,21.57,-1571.97,608.43,9668.67,1755696217.2247684,14:23:37
1068001.0,77.0,100.0,99.0,3.0,-6.31,4.84,5.85,-0.03,-0.01,0.01,21.57,-1572.1,608.53,9668.79,1755696217.3683803,14:23:37
1068022.0,77.0,100.0,99.0,3.0,-6.26,4.85,5.8,-0.03,0.0,0.0,21.57,-1572.23,608.64,9668.91,1755696217.47056,14:23:37
1068043.0,77.0,100.0,99.0,3.0,-6.28,4.87,5.8,-0.03,0.02,0.01,21.55,-1572.36,608.74,9669.03,1755696217.5230744,14:23:37
1068064.0,77.0,100.0,99.0,3.0,-6.32,4.83,5.81,-0.03,0.02,0.01,21.56,-1572.5,608.84,9669.16,1755696217.6729274,14:23:37
1068085.0,77.0,100.0,99.0,3.0,-6.28,4.85,5.8,-0.02,0.0,0.0,21.56,-1572.63,608.94,9669.28,1755696217.7636147,14:23:37
1068107.0,77.0,100.0,99.0,3.0,-6.26,4.86,5.81,-0.03,0.01,0.0,21.57,-1572.77,609.05,9669.41,1755696217.87996,14:23:37
1068128.0,77.0,100.0,99.0,3.0,-6.27,4.85,5.81,-0.03,0.02,0.0,21.56,-1572.9,609.15,9669.53,1755696217.9908078,14:23:37
1068150.0,77.0,100.0,99.0,3.0,-6.29,4.84,5.83,-0.03,0.01,0.0,21.56,-1573.04,609.26,9669.66,1755696218.0843446,14:23:38
1068171.0,77.0,100.0,99.0,3.0,-6.28,4.86,5.81,-0.03,0.0,0.0,21.57,-1573.17,609.36,9669.78,1755696218.1384785,14:23:38
1068192.0,77.0,100.0,99.0,3.0,-6.29,4.85,5.78,-0.03,0.01,0.0,21.58,-1573.3,609.46,9669.9,1755696218.3905454,14:23:38
1068213.0,77.0,100.0,99.0,3.0,-6.29,4.84,5.82,-0.03,0.01,0.0,21.57,-1573.43,609.56,9670.02,1755696218.3906481,14:23:38
1068234.0,77.0,100.0,99.0,3.0,-6.31,4.85,5.81,-0.03,0.01,-0.0,21.57,-1573.57,609.66,9670.14,1755696218.493359,14:23:38
1068255.0,77.0,100.0,99.0,3.0,-6.28,4.84,5.8,-0.03,0.01,0.0,21.57,-1573.7,609.77,9670.27,1755696218.5611753,14:23:38
1068276.0,77.0,100.0,99.0,3.0,-6.29,4.83,5.81,-0.03,0.01,0.0,21.57,-1573.83,609.87,9670.39,1755696218.6202393,14:23:38
1068298.0,77.0,100.0,99.0,3.0,-6.27,4.85,5.77,-0.03,0.01,0.0,21.57,-1573.97,609.97,9670.51,1755696218.6801226,14:23:38
1068319.0,77.0,100.0,99.0,3.0,-6.29,4.87,5.81,-0.03,0.01,0.0,21.58,-1574.1,610.08,9670.64,1755696218.8061087,14:23:38
1068340.0,77.0,100.0,99.0,3.0,-6.28,4.84,5.78,-0.03,0.01,0.0,21.59,-1574.23,610.18,9670.76,1755696218.9037774,14:23:38
1068361.0,77.0,100.0,99.0,3.0,-6.28,4.85,5.82,-0.03,0.01,0.0,21.57,-1574.36,610.28,9670.88,1755696219.0083764,14:23:39
1068382.0,77.0,100.0,99.0,3.0,-6.3,4.85,5.81,-0.03,0.01,0.0,21.57,-1574.5,610.38,9671.0,1755696219.1082647,14:23:39
1068404.0,77.0,100.0,99.0,3.0,-6.31,4.85,5.83,-0.02,0.01,0.0,21.58,-1574.63,610.49,9671.13,1755696219.210869,14:23:39
1068425.0,77.0,100.0,99.0,3.0,-6.31,4.88,5.86,-0.01,0.01,-0.0,21.57,-1574.77,610.59,9671.25,1755696219.2680373,14:23:39
1068446.0,77.0,100.0,99.0,3.0,-6.29,4.88,5.86,-0.03,0.0,0.01,21.58,-1574.9,610.69,9671.38,1755696219.336035,14:23:39
1068468.0,77.0,100.0,99.0,3.0,-6.26,4.85,5.8,-0.04,-0.0,0.01,21.56,-1575.04,610.8,9671.5,1755696219.3886464,14:23:39
1068489.0,77.0,100.0,99.0,3.0,-6.28,4.83,5.75,-0.03,0.01,0.0,21.57,-1575.17,610.9,9671.63,1755696219.5231447,14:23:39
1068511.0,77.0,100.0,99.0,3.0,-6.29,4.82,5.82,-0.01,0.02,0.0,21.57,-1575.31,611.01,9671.75,1755696219.6215093,14:23:39
1068532.0,77.0,100.0,99.0,3.0,-6.32,4.82,5.83,-0.02,0.0,0.01,21.57,-1575.44,611.11,9671.87,1755696219.7209492,14:23:39
1068553.0,77.0,100.0,99.0,3.0,-6.32,4.79,5.83,-0.02,-0.01,0.01,21.57,-1575.57,611.21,9672.0,1755696219.7786765,14:23:39
1068574.0,77.0,100.0,99.0,3.0,-6.3,4.84,5.8,-0.01,0.0,-0.0,21.57,-1575.7,611.31,9672.12,1755696219.9292808,14:23:39
1068595.0,77.0,100.0,99.0,3.0,-6.29,4.89,5.84,-0.01,0.02,0.0,21.59,-1575.84,611.41,9672.24,1755696220.0290334,14:23:40
1068617.0,77.0,100.0,99.0,3.0,-6.31,4.89,5.8,-0.02,0.0,0.01,21.57,-1575.98,611.52,9672.37,1755696220.0847113,14:23:40
1068638.0,77.0,100.0,99.0,3.0,-6.28,4.89,5.8,-0.02,-0.0,0.0,21.58,-1576.11,611.62,9672.49,1755696220.237106,14:23:40
1068660.0,77.0,100.0,99.0,3.0,-6.31,4.86,5.78,-0.02,0.01,0.01,21.57,-1576.25,611.73,9672.62,1755696220.2926412,14:23:40
1068681.0,77.0,100.0,99.0,3.0,-6.3,4.84,5.83,-0.03,0.01,0.01,21.58,-1576.38,611.83,9672.74,1755696220.3555832,14:23:40
1068704.0,77.0,100.0,99.0,3.0,-6.29,4.81,5.83,-0.02,-0.0,0.0,21.57,-1576.52,611.94,9672.87,1755696220.4440374,14:23:40
1068726.0,77.0,100.0,99.0,3.0,-6.32,4.88,5.83,-0.02,0.01,0.0,21.58,-1576.66,612.05,9673.0,1755696220.5408854,14:23:40
1068747.0,77.0,100.0,99.0,3.0,-6.32,4.87,5.84,-0.02,0.02,0.01,21.57,-1576.79,612.15,9673.12,1755696220.603989,14:23:40
1068768.0,77.0,100.0,99.0,3.0,-6.27,4.86,5.8,-0.04,-0.0,0.01,21.59,-1576.93,612.25,9673.25,1755696220.6536312,14:23:40
1068789.0,77.0,100.0,99.0,3.0,-6.25,4.87,5.74,-0.03,0.01,0.0,21.57,-1577.06,612.36,9673.37,1755696220.7036772,14:23:40
1068811.0,77.0,100.0,99.0,3.0,-6.28,4.85,5.78,-0.02,0.02,0.0,21.57,-1577.2,612.46,9673.49,1755696220.7606325,14:23:40
1068832.0,77.0,100.0,99.0,3.0,-6.34,4.84,5.85,-0.02,0.01,0.01,21.56,-1577.33,612.56,9673.62,1755696220.8205702,14:23:40
1068853.0,77.0,100.0,99.0,3.0,-6.32,4.85,5.84,-0.02,-0.01,0.0,21.56,-1577.46,612.67,9673.74,1755696220.9528756,14:23:40
1068875.0,77.0,100.0,99.0,3.0,-6.28,4.88,5.81,-0.03,0.0,0.0,21.54,-1577.6,612.77,9673.87,1755696221.0039332,14:23:41
1068896.0,77.0,100.0,99.0,3.0,-6.3,4.87,5.8,-0.03,0.03,0.01,21.57,-1577.73,612.88,9673.99,1755696221.0934582,14:23:41
1068918.0,77.0,100.0,99.0,3.0,-6.29,4.85,5.8,-0.03,0.01,0.01,21.56,-1577.87,612.98,9674.12,1755696221.2604852,14:23:41
1068939.0,77.0,100.0,99.0,3.0,-6.28,4.86,5.77,-0.03,-0.0,0.0,21.54,-1578.0,613.08,9674.24,1755696221.3198493,14:23:41
1068960.0,77.0,100.0,99.0,3.0,-6.28,4.85,5.79,-0.03,0.01,0.0,21.58,-1578.13,613.19,9674.36,1755696221.36869,14:23:41
1068981.0,77.0,100.0,99.0,3.0,-6.3,4.86,5.79,-0.03,0.02,0.0,21.57,-1578.27,613.29,9674.48,1755696221.4224465,14:23:41
1069003.0,77.0,100.0,99.0,3.0,-6.3,4.85,5.81,-0.03,0.01,0.0,21.56,-1578.41,613.4,9674.61,1755696221.4709752,14:23:41
1069025.0,77.0,100.0,99.0,3.0,-6.29,4.86,5.83,-0.03,0.01,0.0,21.57,-1578.54,613.5,9674.74,1755696221.5217986,14:23:41
1069046.0,77.0,100.0,99.0,3.0,-6.28,4.85,5.81,-0.03,0.02,0.01,21.55,-1578.68,613.6,9674.86,1755696221.5812762,14:23:41
1069068.0,77.0,100.0,99.0,3.0,-6.3,4.83,5.84,-0.03,0.02,0.01,21.58,-1578.81,613.71,9674.99,1755696221.6385658,14:23:41
1069090.0,77.0,100.0,99.0,3.0,-6.29,4.84,5.82,-0.03,0.01,0.0,21.57,-1578.95,613.82,9675.11,1755696221.702222,14:23:41
1069112.0,77.0,100.0,99.0,3.0,-6.29,4.82,5.83,-0.03,0.01,0.0,21.57,-1579.09,613.92,9675.24,1755696221.757382,14:23:41
1069133.0,77.0,100.0,99.0,3.0,-6.3,4.85,5.79,-0.03,0.01,0.0,21.55,-1579.22,614.02,9675.36,1755696221.873632,14:23:41
1069154.0,77.0,100.0,99.0,3.0,-6.31,4.87,5.81,-0.03,0.01,0.0,21.57,-1579.36,614.13,9675.49,1755696221.9767408,14:23:41
1069175.0,77.0,100.0,99.0,3.0,-6.31,4.87,5.79,-0.03,0.01,0.0,21.57,-1579.49,614.23,9675.61,1755696222.0755885,14:23:42
1069196.0,77.0,100.0,99.0,3.0,-6.29,4.87,5.81,-0.03,0.01,0.01,21.56,-1579.62,614.33,9675.73,1755696222.2892654,14:23:42
1069218.0,77.0,100.0,99.0,3.0,-6.28,4.84,5.81,-0.03,0.01,0.01,21.57,-1579.76,614.44,9675.86,1755696222.3392563,14:23:42
1069240.0,76.0,100.0,99.0,3.0,-6.31,4.84,5.79,-0.03,0.01,0.01,21.58,-1579.9,614.54,9675.99,1755696222.4943266,14:23:42
1069261.0,76.0,100.0,99.0,3.0,-6.31,4.84,5.82,-0.02,0.01,0.0,21.57,-1580.03,614.65,9676.11,1755696222.5906358,14:23:42
1069284.0,76.0,100.0,99.0,3.0,-6.31,4.87,5.84,-0.02,0.01,0.0,21.55,-1580.17,614.76,9676.24,1755696222.9592295,14:23:42
1069305.0,76.0,100.0,99.0,3.0,-6.29,4.87,5.83,-0.03,0.01,0.01,21.55,-1580.31,614.86,9676.36,1755696222.959349,14:23:42
1069327.0,76.0,100.0,99.0,3.0,-6.29,4.85,5.8,-0.03,0.01,0.0,21.57,-1580.45,614.97,9676.49,1755696223.0580792,14:23:43
1069348.0,76.0,100.0,99.0,3.0,-6.28,4.86,5.8,-0.02,0.01,0.0,21.57,-1580.58,615.07,9676.61,1755696223.204234,14:23:43
1069369.0,76.0,100.0,99.0,3.0,-6.29,4.88,5.88,-0.01,0.01,0.0,21.57,-1580.71,615.17,9676.74,1755696223.2586715,14:23:43
1069390.0,76.0,100.0,99.0,3.0,-6.31,4.85,5.86,-0.03,-0.01,0.01,21.58,-1580.84,615.27,9676.86,1755696223.4077024,14:23:43
1069411.0,76.0,100.0,99.0,3.0,-6.3,4.83,5.79,-0.03,-0.0,0.0,21.57,-1580.97,615.37,9676.98,1755696223.7430856,14:23:43
1069434.0,76.0,100.0,99.0,3.0,-6.3,4.85,5.8,-0.02,0.01,0.0,21.58,-1581.12,615.49,9677.12,1755696223.7432306,14:23:43
1069455.0,76.0,100.0,99.0,3.0,-6.3,4.86,5.83,-0.02,0.01,0.01,21.57,-1581.25,615.59,9677.24,1755696223.807233,14:23:43
1069477.0,76.0,100.0,99.0,3.0,-6.3,4.87,5.79,-0.02,-0.0,0.0,21.58,-1581.39,615.7,9677.37,1755696223.8624344,14:23:43
1069498.0,76.0,100.0,99.0,3.0,-6.29,4.86,5.79,-0.02,0.01,0.0,21.58,-1581.52,615.8,9677.49,1755696224.0302324,14:23:44
1069519.0,76.0,100.0,99.0,3.0,-6.33,4.87,5.83,-0.02,0.02,0.01,21.58,-1581.65,615.9,9677.61,1755696224.0829096,14:23:44
1069540.0,76.0,100.0,99.0,3.0,-6.31,4.84,5.83,-0.03,0.01,0.01,21.58,-1581.79,616.0,9677.73,1755696224.1358674,14:23:44
1069561.0,76.0,100.0,99.0,3.0,-6.29,4.84,5.83,-0.03,0.01,0.01,21.57,-1581.92,616.1,9677.85,1755696224.23448,14:23:44
1069582.0,76.0,100.0,99.0,3.0,-6.25,4.88,5.81,-0.02,0.02,0.0,21.58,-1582.05,616.21,9677.98,1755696224.3320565,14:23:44
1069603.0,76.0,100.0,99.0,3.0,-6.29,4.86,5.86,-0.03,0.02,0.01,21.57,-1582.18,616.31,9678.1,1755696224.6448617,14:23:44
1069625.0,76.0,100.0,99.0,3.0,-6.27,4.84,5.84,-0.02,-0.01,0.01,21.59,-1582.32,616.41,9678.23,1755696224.6449316,14:23:44
1069647.0,76.0,100.0,99.0,3.0,-6.26,4.87,5.81,-0.01,-0.01,0.0,21.58,-1582.46,616.52,9678.35,1755696224.6992142,14:23:44
1069668.0,76.0,100.0,99.0,3.0,-6.31,4.85,5.83,-0.02,0.01,0.01,21.57,-1582.59,616.62,9678.48,1755696224.9451952,14:23:44
1069689.0,76.0,100.0,99.0,3.0,-6.34,4.84,5.85,-0.02,-0.01,0.01,21.56,-1582.72,616.72,9678.6,1755696225.0490468,14:23:45
1069710.0,76.0,100.0,99.0,3.0,-6.29,4.85,5.8,-0.01,-0.02,0.0,21.58,-1582.86,616.83,9678.72,1755696225.1480796,14:23:45
1069732.0,76.0,100.0,99.0,3.0,-6.29,4.87,5.77,-0.01,0.01,0.01,21.59,-1582.99,616.93,9678.85,1755696225.1997268,14:23:45
1069753.0,76.0,100.0,99.0,3.0,-6.31,4.86,5.81,-0.02,0.02,0.01,21.59,-1583.13,617.04,9678.97,1755696225.3568013,14:23:45
1069774.0,76.0,100.0,99.0,3.0,-6.3,4.84,5.81,-0.01,0.01,0.01,21.57,-1583.26,617.14,9679.09,1755696225.4080186,14:23:45
1069796.0,76.0,100.0,99.0,3.0,-6.28,4.85,5.78,-0.01,0.0,0.01,21.59,-1583.4,617.24,9679.22,1755696225.5574472,14:23:45
1069817.0,76.0,100.0,99.0,3.0,-6.25,4.87,5.82,-0.01,0.01,0.01,21.59,-1583.53,617.35,9679.34,1755696225.6174717,14:23:45
1069838.0,76.0,100.0,99.0,3.0,-6.29,4.89,5.83,-0.01,0.01,0.0,21.58,-1583.66,617.45,9679.46,1755696225.7674825,14:23:45
1069859.0,76.0,100.0,99.0,3.0,-6.31,4.9,5.8,-0.01,-0.0,0.0,21.59,-1583.79,617.55,9679.59,1755696225.833138,14:23:45
1069880.0,76.0,100.0,99.0,3.0,-6.3,4.9,5.8,-0.02,-0.01,0.01,21.58,-1583.93,617.65,9679.71,1755696225.8930473,14:23:45
1069901.0,76.0,100.0,99.0,3.0,-6.28,4.87,5.79,-0.02,0.0,0.01,21.59,-1584.06,617.76,9679.83,1755696225.9648151,14:23:45
1069922.0,76.0,100.0,99.0,3.0,-6.29,4.88,5.82,-0.01,-0.0,0.01,21.58,-1584.19,617.86,9679.95,1755696226.07391,14:23:46
1069945.0,76.0,100.0,99.0,3.0,-6.28,4.88,5.8,-0.01,-0.0,0.01,21.59,-1584.33,617.97,9680.09,1755696226.1290827,14:23:46
1069966.0,76.0,100.0,99.0,3.0,-6.27,4.86,5.79,-0.01,0.01,0.01,21.6,-1584.47,618.07,9680.21,1755696226.2773588,14:23:46
1069987.0,76.0,100.0,99.0,3.0,-6.28,4.87,5.79,-0.01,0.01,0.01,21.57,-1584.6,618.18,9680.33,1755696226.343255,14:23:46
1070049.0,76.0,100.0,99.0,3.0,-6.26,4.89,5.8,-0.02,0.0,0.01,21.59,-1584.99,618.48,9680.69,1755696226.4885411,14:23:46
1070070.0,76.0,100.0,99.0,3.0,-6.29,4.87,5.82,-0.02,-0.01,0.01,21.59,-1585.12,618.58,9680.81,1755696226.5836651,14:23:46
1070091.0,76.0,100.0,99.0,3.0,-6.28,4.89,5.84,-0.0,0.01,0.0,21.6,-1585.25,618.68,9680.94,1755696226.6827502,14:23:46
1070112.0,76.0,100.0,99.0,3.0,-6.3,4.91,5.83,-0.01,0.0,0.01,21.59,-1585.38,618.79,9681.06,1755696226.7370422,14:23:46
1070133.0,76.0,100.0,99.0,3.0,-6.26,4.89,5.8,-0.02,-0.01,0.01,21.58,-1585.51,618.89,9681.18,1755696226.8981032,14:23:46
1070155.0,76.0,100.0,99.0,3.0,-6.28,4.87,5.75,-0.02,0.0,0.01,21.58,-1585.65,619.0,9681.31,1755696226.9905558,14:23:46
1070176.0,76.0,100.0,99.0,3.0,-6.28,4.89,5.75,0.0,0.01,0.0,21.59,-1585.78,619.1,9681.43,1755696227.0955212,14:23:47
1070198.0,76.0,100.0,99.0,3.0,-6.3,4.9,5.83,-0.01,-0.0,0.01,21.57,-1585.92,619.21,9681.55,1755696227.198617,14:23:47
1070219.0,76.0,100.0,99.0,3.0,-6.28,4.88,5.81,-0.02,-0.0,0.01,21.57,-1586.05,619.31,9681.68,1755696227.2999132,14:23:47
1070240.0,76.0,100.0,99.0,3.0,-6.27,4.89,5.78,-0.01,0.01,0.0,21.58,-1586.19,619.41,9681.8,1755696227.3697047,14:23:47
1070262.0,76.0,100.0,99.0,3.0,-6.26,4.93,5.78,-0.01,0.01,0.0,21.56,-1586.32,619.52,9681.93,1755696227.50681,14:23:47
1070283.0,76.0,100.0,99.0,3.0,-6.26,4.94,5.77,-0.02,-0.0,0.01,21.58,-1586.46,619.62,9682.05,1755696227.608334,14:23:47
1070304.0,76.0,100.0,99.0,3.0,-6.25,4.93,5.77,-0.02,-0.0,0.01,21.58,-1586.59,619.73,9682.17,1755696227.659803,14:23:47
1070325.0,76.0,100.0,99.0,3.0,-6.28,4.95,5.78,-0.01,0.01,0.01,21.59,-1586.72,619.83,9682.29,1755696227.8132226,14:23:47
1070347.0,76.0,100.0,99.0,3.0,-6.27,4.93,5.84,-0.02,0.0,0.01,21.57,-1586.86,619.94,9682.42,1755696227.864575,14:23:47
1070368.0,76.0,100.0,99.0,3.0,-6.26,4.91,5.84,-0.02,-0.01,0.01,21.58,-1586.99,620.04,9682.54,1755696228.142911,14:23:48
1070389.0,76.0,100.0,99.0,3.0,-6.24,4.93,5.79,-0.02,-0.0,0.01,21.57,-1587.12,620.15,9682.66,1755696228.1430526,14:23:48
1070411.0,76.0,100.0,99.0,3.0,-6.25,4.91,5.77,-0.02,0.01,0.01,21.57,-1587.26,620.25,9682.79,1755696228.2270026,14:23:48
1070432.0,76.0,100.0,99.0,3.0,-6.27,4.88,5.77,-0.02,0.0,0.01,21.58,-1587.39,620.36,9682.91,1755696228.330215,14:23:48
1070454.0,76.0,100.0,99.0,3.0,-6.23,4.89,5.77,-0.02,-0.01,0.0,21.56,-1587.53,620.47,9683.04,1755696228.380096,14:23:48
1070475.0,76.0,100.0,99.0,3.0,-6.25,4.92,5.77,-0.02,0.0,0.0,21.56,-1587.66,620.57,9683.16,1755696228.529057,14:23:48
1070496.0,76.0,100.0,99.0,3.0,-6.28,4.92,5.79,-0.03,0.01,0.01,21.57,-1587.79,620.67,9683.28,1755696228.6370661,14:23:48
1070517.0,76.0,100.0,99.0,3.0,-6.28,4.91,5.79,-0.03,0.0,0.0,21.56,-1587.92,620.77,9683.4,1755696228.7188833,14:23:48
1070539.0,76.0,100.0,99.0,3.0,-6.22,4.93,5.77,-0.04,0.0,-0.0,21.56,-1588.06,620.88,9683.53,1755696228.7771113,14:23:48
1070561.0,76.0,100.0,99.0,3.0,-6.22,4.94,5.73,-0.04,0.02,0.0,21.59,-1588.2,620.99,9683.65,1755696228.9366336,14:23:48
1070582.0,76.0,100.0,99.0,3.0,-6.27,4.89,5.77,-0.04,0.02,0.01,21.57,-1588.33,621.09,9683.78,1755696229.1442506,14:23:49
1070603.0,76.0,100.0,99.0,3.0,-6.29,4.9,5.82,-0.04,0.0,0.0,21.57,-1588.46,621.2,9683.9,1755696229.248188,14:23:49
1070624.0,76.0,100.0,99.0,3.0,-6.24,4.91,5.78,-0.04,0.01,-0.0,21.55,-1588.59,621.3,9684.02,1755696229.3023155,14:23:49
1070645.0,76.0,100.0,99.0,3.0,-6.26,4.91,5.79,-0.04,0.03,0.0,21.57,-1588.72,621.4,9684.14,1755696229.4636867,14:23:49
1070667.0,76.0,100.0,99.0,3.0,-6.25,4.9,5.84,-0.04,0.02,0.0,21.57,-1588.86,621.51,9684.27,1755696229.5518894,14:23:49
1070688.0,76.0,100.0,99.0,3.0,-6.24,4.92,5.79,-0.04,0.0,0.0,21.56,-1588.99,621.61,9684.39,1755696229.6545641,14:23:49
1070709.0,76.0,100.0,99.0,3.0,-6.25,4.91,5.77,-0.04,0.01,0.0,21.57,-1589.12,621.72,9684.51,1755696229.7637825,14:23:49
1070730.0,76.0,100.0,99.0,3.0,-6.26,4.88,5.78,-0.04,0.02,0.0,21.55,-1589.25,621.82,9684.63,1755696229.821049,14:23:49
1070752.0,76.0,100.0,99.0,3.0,-6.28,4.87,5.8,-0.04,0.01,-0.0,21.57,-1589.39,621.93,9684.76,1755696229.9742744,14:23:49
1070774.0,76.0,100.0,99.0,3.0,-6.27,4.9,5.79,-0.04,0.01,-0.0,21.58,-1589.53,622.04,9684.89,1755696230.0304923,14:23:50
1070795.0,76.0,100.0,99.0,3.0,-6.3,4.91,5.81,-0.04,0.01,0.0,21.55,-1589.66,622.14,9685.01,1755696230.401366,14:23:50
1070816.0,76.0,100.0,99.0,3.0,-6.28,4.9,5.79,-0.04,0.02,0.0,21.57,-1589.79,622.24,9685.13,1755696230.401536,14:23:50
1070837.0,76.0,100.0,99.0,3.0,-6.28,4.91,5.8,-0.05,0.02,0.0,21.56,-1589.92,622.34,9685.25,1755696230.5949438,14:23:50
1070859.0,76.0,100.0,99.0,3.0,-6.27,4.86,5.77,-0.05,0.02,0.0,21.56,-1590.06,622.45,9685.38,1755696230.7632651,14:23:50
1070880.0,76.0,100.0,99.0,3.0,-6.3,4.88,5.82,-0.04,0.03,-0.0,21.56,-1590.19,622.55,9685.5,1755696230.8270795,14:23:50
1070901.0,76.0,100.0,99.0,3.0,-6.28,4.88,5.86,-0.04,0.02,0.0,21.57,-1590.33,622.66,9685.63,1755696230.8820736,14:23:50
1070924.0,76.0,100.0,99.0,3.0,-6.24,4.87,5.81,-0.05,0.01,0.0,21.56,-1590.47,622.77,9685.76,1755696231.015564,14:23:51
1070945.0,76.0,100.0,99.0,3.0,-6.26,4.85,5.78,-0.04,0.02,0.0,21.59,-1590.6,622.87,9685.88,1755696231.0986867,14:23:51
1070966.0,76.0,100.0,99.0,3.0,-6.27,4.87,5.8,-0.03,0.02,-0.0,21.56,-1590.73,622.97,9686.0,1755696231.1921873,14:23:51
1070987.0,76.0,100.0,99.0,3.0,-6.28,4.88,5.83,-0.03,0.01,0.0,21.58,-1590.86,623.08,9686.13,1755696231.3974423,14:23:51
1071008.0,76.0,100.0,99.0,3.0,-6.3,4.87,5.83,-0.04,0.0,0.0,21.58,-1591.0,623.18,9686.25,1755696231.497969,14:23:51
1071029.0,76.0,100.0,99.0,3.0,-6.28,4.87,5.8,-0.03,0.0,-0.0,21.57,-1591.13,623.28,9686.37,1755696231.560145,14:23:51
1071050.0,76.0,100.0,99.0,3.0,-6.26,4.87,5.8,-0.03,0.01,0.0,21.57,-1591.26,623.38,9686.49,1755696231.825553,14:23:51
1071072.0,76.0,100.0,99.0,3.0,-6.29,4.84,5.81,-0.03,0.01,0.0,21.55,-1591.4,623.49,9686.62,1755696231.8257189,14:23:51
1071093.0,76.0,100.0,99.0,3.0,-6.29,4.88,5.8,-0.03,0.0,-0.0,21.56,-1591.53,623.59,9686.74,1755696231.886411,14:23:51
1071114.0,76.0,100.0,99.0,3.0,-6.31,4.87,5.81,-0.03,0.01,0.0,21.57,-1591.66,623.69,9686.86,1755696232.0122619,14:23:52
1071136.0,76.0,100.0,99.0,3.0,-6.3,4.86,5.84,-0.03,0.02,0.0,21.57,-1591.8,623.8,9686.99,1755696232.1125538,14:23:52
1071157.0,76.0,100.0,99.0,3.0,-6.31,4.86,5.81,-0.04,0.01,0.0,21.57,-1591.93,623.9,9687.11,1755696232.3393831,14:23:52
1071179.0,76.0,100.0,99.0,3.0,-6.31,4.87,5.79,-0.03,0.02,0.0,21.56,-1592.07,624.01,9687.24,1755696232.4214973,14:23:52
1071200.0,76.0,100.0,99.0,3.0,-6.28,4.86,5.83,-0.03,0.03,0.0,21.57,-1592.21,624.11,9687.36,1755696232.5207093,14:23:52
1071221.0,76.0,100.0,99.0,3.0,-6.27,4.85,5.83,-0.03,0.02,0.01,21.56,-1592.34,624.21,9687.49,1755696232.6247458,14:23:52
1071243.0,76.0,100.0,99.0,3.0,-6.25,4.84,5.81,-0.03,-0.0,-0.0,21.58,-1592.47,624.32,9687.61,1755696232.674911,14:23:52
1071264.0,76.0,100.0,99.0,3.0,-6.3,4.86,5.79,-0.02,0.01,-0.0,21.55,-1592.61,624.42,9687.74,1755696232.7235146,14:23:52
1071285.0,76.0,100.0,99.0,3.0,-6.31,4.84,5.87,-0.02,0.01,0.0,21.54,-1592.74,624.52,9687.86,1755696232.775889,14:23:52
1071306.0,76.0,100.0,99.0,3.0,-6.28,4.84,5.85,-0.02,-0.0,-0.0,21.57,-1592.87,624.63,9687.98,1755696232.9388924,14:23:52
1071327.0,76.0,100.0,99.0,3.0,-6.26,4.86,5.77,-0.03,-0.0,0.0,21.57,-1593.0,624.73,9688.1,1755696232.9965947,14:23:52
1071348.0,76.0,100.0,99.0,3.0,-6.3,4.86,5.8,-0.03,0.01,0.01,21.56,-1593.13,624.83,9688.22,1755696233.0641015,14:23:53
1071370.0,76.0,100.0,99.0,3.0,-6.32,4.81,5.77,-0.02,0.01,0.0,21.57,-1593.27,624.94,9688.35,1755696233.2587497,14:23:53
1071391.0,76.0,100.0,99.0,3.0,-6.3,4.85,5.79,-0.02,-0.0,-0.0,21.58,-1593.41,625.04,9688.47,1755696233.3407974,14:23:53
1071412.0,75.0,100.0,99.0,3.0,-6.25,4.86,5.79,-0.03,0.01,0.0,21.58,-1593.54,625.14,9688.59,1755696233.4435968,14:23:53
1071433.0,75.0,100.0,99.0,3.0,-6.3,4.85,5.8,-0.03,0.03,0.0,21.58,-1593.67,625.24,9688.72,1755696233.500192,14:23:53
1071454.0,75.0,100.0,99.0,3.0,-6.31,4.86,5.84,-0.02,0.01,-0.0,21.57,-1593.8,625.34,9688.84,1755696233.6517158,14:23:53
1071476.0,75.0,100.0,99.0,3.0,-6.3,4.88,5.82,-0.03,-0.0,0.0,21.57,-1593.94,625.45,9688.97,1755696233.7072632,14:23:53
1071497.0,75.0,100.0,99.0,3.0,-6.28,4.87,5.78,-0.03,0.01,0.01,21.59,-1594.07,625.55,9689.09,1755696233.854293,14:23:53
1071518.0,75.0,100.0,99.0,3.0,-6.31,4.87,5.78,-0.03,0.02,0.0,21.57,-1594.2,625.65,9689.21,1755696233.9593942,14:23:53
1071539.0,75.0,100.0,99.0,3.0,-6.32,4.85,5.81,-0.02,0.01,0.0,21.57,-1594.34,625.76,9689.33,1755696234.0591471,14:23:54
1071560.0,75.0,100.0,99.0,3.0,-6.28,4.85,5.79,-0.03,-0.0,0.01,21.57,-1594.47,625.86,9689.45,1755696234.1656983,14:23:54
1071581.0,75.0,100.0,99.0,3.0,-6.31,4.87,5.81,-0.02,0.01,0.01,21.58,-1594.6,625.96,9689.58,1755696234.2830856,14:23:54
1071602.0,75.0,100.0,99.0,3.0,-6.28,4.86,5.8,-0.02,0.01,0.0,21.58,-1594.73,626.06,9689.7,1755696234.3499472,14:23:54
1071623.0,75.0,100.0,99.0,3.0,-6.28,4.86,5.78,-0.03,0.0,0.01,21.56,-1594.87,626.16,9689.82,1755696234.5715728,14:23:54
1071644.0,75.0,100.0,99.0,3.0,-6.3,4.82,5.76,-0.02,0.01,0.01,21.57,-1595.0,626.27,9689.94,1755696234.6215627,14:23:54
1071665.0,75.0,100.0,99.0,3.0,-6.34,4.87,5.8,-0.02,0.02,0.0,21.57,-1595.13,626.37,9690.06,1755696234.6757603,14:23:54
1071687.0,75.0,100.0,99.0,3.0,-6.3,4.87,5.87,-0.03,0.01,0.01,21.59,-1595.27,626.47,9690.19,1755696234.7298017,14:23:54
1071708.0,75.0,100.0,99.0,3.0,-6.27,4.85,5.78,-0.04,0.01,0.01,21.59,-1595.4,626.58,9690.31,1755696234.8767953,14:23:54
1071729.0,75.0,100.0,99.0,3.0,-6.28,4.83,5.78,-0.02,0.01,0.0,21.59,-1595.53,626.68,9690.43,1755696234.9834976,14:23:54
1071750.0,75.0,100.0,99.0,3.0,-6.3,4.87,5.81,-0.01,0.01,0.0,21.56,-1595.67,626.78,9690.55,1755696235.0924456,14:23:55
1071771.0,75.0,100.0,99.0,3.0,-6.3,4.86,5.85,-0.03,-0.0,0.01,21.58,-1595.8,626.88,9690.68,1755696235.1853166,14:23:55
1071793.0,75.0,100.0,99.0,3.0,-6.28,4.84,5.83,-0.02,-0.01,0.0,21.58,-1595.94,626.99,9690.81,1755696235.2443016,14:23:55
1071814.0,75.0,100.0,99.0,3.0,-6.28,4.84,5.77,-0.02,0.0,-0.0,21.57,-1596.07,627.09,9690.93,1755696235.3927221,14:23:55
1071835.0,75.0,100.0,99.0,3.0,-6.28,4.87,5.77,-0.02,0.01,0.0,21.58,-1596.2,627.19,9691.05,1755696235.498953,14:23:55
1071857.0,75.0,100.0,99.0,3.0,-6.29,4.88,5.8,-0.03,0.0,0.01,21.58,-1596.34,627.3,9691.18,1755696235.595635,14:23:55
1071879.0,75.0,100.0,99.0,3.0,-6.3,4.84,5.79,-0.03,0.0,0.0,21.57,-1596.48,627.41,9691.3,1755696235.6974201,14:23:55
1071900.0,75.0,100.0,99.0,3.0,-6.3,4.86,5.8,-0.03,0.02,0.01,21.58,-1596.61,627.51,9691.43,1755696235.7980728,14:23:55
1071921.0,75.0,100.0,99.0,3.0,-6.32,4.85,5.82,-0.03,0.02,0.0,21.58,-1596.74,627.61,9691.55,1755696235.908406,14:23:55
1071942.0,75.0,100.0,99.0,3.0,-6.31,4.86,5.81,-0.04,0.01,0.0,21.57,-1596.87,627.71,9691.67,1755696236.0125444,14:23:56
1071963.0,75.0,100.0,99.0,3.0,-6.3,4.87,5.79,-0.03,0.01,0.0,21.58,-1597.01,627.81,9691.79,1755696236.1058273,14:23:56
1071985.0,75.0,100.0,99.0,3.0,-6.29,4.87,5.81,-0.03,0.03,0.01,21.58,-1597.15,627.92,9691.92,1755696236.2280867,14:23:56
1072006.0,75.0,100.0,99.0,3.0,-6.28,4.84,5.82,-0.04,0.01,0.0,21.57,-1597.28,628.02,9692.04,1755696236.4380178,14:23:56
1072027.0,75.0,100.0,99.0,3.0,-6.27,4.85,5.81,-0.03,0.0,0.0,21.59,-1597.41,628.13,9692.16,1755696236.5281832,14:23:56
1072048.0,74.0,100.0,99.0,3.0,-6.28,4.86,5.83,-0.03,0.01,0.01,21.58,-1597.54,628.23,9692.29,1755696236.6191556,14:23:56
1072069.0,74.0,100.0,99.0,3.0,-6.33,4.83,5.84,-0.03,0.01,0.01,21.58,-1597.67,628.33,9692.41,1755696236.7202387,14:23:56
1072091.0,74.0,100.0,99.0,3.0,-6.3,4.84,5.81,-0.03,-0.0,0.0,21.59,-1597.81,628.44,9692.54,1755696236.7756746,14:23:56
1072112.0,74.0,100.0,99.0,3.0,-6.28,4.87,5.77,-0.03,0.01,0.0,21.57,-1597.94,628.54,9692.66,1755696236.8242972,14:23:56
1072133.0,74.0,100.0,99.0,3.0,-6.3,4.85,5.78,-0.03,0.03,0.01,21.58,-1598.08,628.64,9692.78,1755696236.8889017,14:23:56
1072155.0,74.0,100.0,99.0,3.0,-6.31,4.85,5.8,-0.03,0.01,0.0,21.58,-1598.21,628.75,9692.91,1755696237.0279086,14:23:57
1072177.0,74.0,100.0,99.0,3.0,-6.28,4.85,5.8,-0.03,0.01,0.0,21.59,-1598.35,628.85,9693.03,1755696237.078909,14:23:57
1072199.0,74.0,100.0,99.0,3.0,-6.28,4.84,5.79,-0.03,0.02,0.0,21.59,-1598.49,628.96,9693.16,1755696237.358954,14:23:57
1072220.0,74.0,100.0,99.0,3.0,-6.32,4.85,5.81,-0.03,0.02,0.0,21.59,-1598.62,629.06,9693.28,1755696237.359105,14:23:57
1072241.0,74.0,100.0,99.0,3.0,-6.32,4.85,5.82,-0.03,0.01,0.0,21.59,-1598.76,629.16,9693.41,1755696237.5711403,14:23:57
1072262.0,74.0,100.0,99.0,3.0,-6.29,4.86,5.81,-0.03,0.01,0.0,21.59,-1598.89,629.26,9693.53,1755696237.6733062,14:23:57
1072283.0,74.0,100.0,99.0,3.0,-6.29,4.85,5.81,-0.03,0.02,0.01,21.59,-1599.02,629.37,9693.65,1755696237.8494298,14:23:57
1072305.0,74.0,100.0,99.0,3.0,-6.3,4.83,5.82,-0.03,0.01,0.0,21.58,-1599.16,629.47,9693.78,1755696237.9517167,14:23:57
1072326.0,74.0,100.0,99.0,3.0,-6.31,4.83,5.81,-0.03,0.0,0.0,21.58,-1599.29,629.57,9693.9,1755696238.0496585,14:23:58
1072348.0,74.0,100.0,99.0,3.0,-6.29,4.83,5.8,-0.03,0.01,0.01,21.58,-1599.43,629.68,9694.03,1755696238.1548717,14:23:58
1072369.0,74.0,100.0,99.0,3.0,-6.33,4.83,5.79,-0.02,0.02,0.0,21.6,-1599.56,629.78,9694.15,1755696238.2593334,14:23:58
1072392.0,74.0,100.0,99.0,3.0,-6.32,4.86,5.83,-0.02,0.01,0.0,21.59,-1599.71,629.89,9694.28,1755696238.3118367,14:23:58
1072414.0,74.0,100.0,99.0,3.0,-6.31,4.86,5.82,-0.03,-0.0,0.01,21.59,-1599.85,630.0,9694.41,1755696238.4655333,14:23:58
1072435.0,74.0,100.0,99.0,3.0,-6.31,4.86,5.8,-0.01,0.01,0.0,21.59,-1599.98,630.1,9694.53,1755696238.573714,14:23:58
1072457.0,74.0,100.0,99.0,3.0,-6.29,4.91,5.84,-0.01,0.0,0.0,21.59,-1600.12,630.21,9694.66,1755696238.682473,14:23:58
1072478.0,74.0,100.0,99.0,3.0,-6.28,4.86,5.82,-0.03,-0.01,0.01,21.59,-1600.25,630.31,9694.78,1755696238.7695262,14:23:58
1072499.0,74.0,100.0,99.0,3.0,-6.29,4.8,5.76,-0.03,0.0,0.01,21.59,-1600.38,630.41,9694.9,1755696238.8884478,14:23:58
1072520.0,74.0,100.0,99.0,3.0,-6.31,4.81,5.77,-0.0,0.01,-0.0,21.6,-1600.51,630.51,9695.03,1755696238.9405558,14:23:58
1072541.0,74.0,100.0,99.0,3.0,-6.32,4.86,5.85,0.0,0.0,-0.0,21.59,-1600.65,630.62,9695.15,1755696238.9901888,14:23:58
1072562.0,74.0,100.0,99.0,3.0,-6.29,4.87,5.87,-0.01,-0.01,0.01,21.59,-1600.78,630.72,9695.27,1755696239.0758517,14:23:59
1072583.0,74.0,100.0,99.0,3.0,-6.31,4.84,5.82,-0.01,-0.01,0.0,21.59,-1600.91,630.82,9695.39,1755696239.1758614,14:23:59
1072604.0,74.0,100.0,99.0,3.0,-6.29,4.87,5.78,-0.0,0.01,-0.0,21.57,-1601.04,630.92,9695.52,1755696239.2298675,14:23:59
1072626.0,74.0,100.0,99.0,3.0,-6.3,4.88,5.8,-0.01,0.0,0.0,21.59,-1601.18,631.03,9695.64,1755696239.381988,14:23:59
1072647.0,74.0,100.0,99.0,3.0,-6.3,4.87,5.82,-0.02,-0.0,0.01,21.58,-1601.31,631.13,9695.76,1755696239.4888349,14:23:59
1072668.0,74.0,100.0,99.0,3.0,-6.31,4.87,5.78,-0.02,0.01,0.0,21.59,-1601.45,631.23,9695.89,1755696239.5528758,14:23:59
1072690.0,74.0,100.0,99.0,3.0,-6.33,4.86,5.8,-0.02,0.03,0.01,21.58,-1601.59,631.34,9696.01,1755696239.7084537,14:23:59
1072712.0,74.0,100.0,99.0,3.0,-6.33,4.81,5.8,-0.02,0.01,0.01,21.6,-1601.72,631.45,9696.14,1755696239.8964987,14:23:59
1072733.0,74.0,100.0,99.0,3.0,-6.33,4.82,5.79,-0.01,0.01,-0.0,21.6,-1601.86,631.55,9696.26,1755696239.9592795,14:23:59
1072756.0,74.0,100.0,99.0,3.0,-6.25,4.89,5.8,-0.01,0.02,-0.0,21.58,-1602.0,631.66,9696.4,1755696240.0213354,14:24:00
1072777.0,74.0,100.0,99.0,3.0,-6.29,4.89,5.8,-0.02,0.02,0.01,21.59,-1602.13,631.76,9696.52,1755696240.095257,14:24:00
1072799.0,74.0,100.0,99.0,3.0,-6.28,4.86,5.79,-0.02,0.0,0.0,21.59,-1602.27,631.87,9696.65,1755696240.2052512,14:24:00
1072820.0,74.0,100.0,99.0,3.0,-6.26,4.89,5.76,-0.02,0.0,-0.0,21.58,-1602.4,631.97,9696.77,1755696240.3015282,14:24:00
1072841.0,74.0,100.0,99.0,3.0,-6.3,4.86,5.77,-0.01,0.02,0.01,21.6,-1602.54,632.07,9696.89,1755696240.407019,14:24:00
1072862.0,74.0,100.0,99.0,3.0,-6.33,4.85,5.85,-0.01,0.01,0.01,21.59,-1602.67,632.18,9697.01,1755696240.5108664,14:24:00
1072883.0,74.0,100.0,99.0,3.0,-6.32,4.85,5.8,-0.02,-0.01,0.0,21.59,-1602.8,632.28,9697.13,1755696240.613639,14:24:00
1072904.0,74.0,100.0,99.0,3.0,-6.29,4.85,5.74,-0.02,0.0,0.0,21.59,-1602.93,632.38,9697.25,1755696240.6653848,14:24:00
1072925.0,74.0,100.0,99.0,3.0,-6.32,4.87,5.75,-0.01,0.03,0.01,21.58,-1603.07,632.48,9697.38,1755696240.8292155,14:24:00
1072946.0,74.0,100.0,99.0,3.0,-6.31,4.87,5.79,-0.01,0.01,0.0,21.6,-1603.2,632.58,9697.5,1755696240.920656,14:24:00
1072967.0,74.0,100.0,99.0,3.0,-6.29,4.87,5.77,-0.01,0.0,0.0,21.58,-1603.33,632.69,9697.62,1755696241.02255,14:24:01
1072988.0,74.0,100.0,99.0,3.0,-6.29,4.88,5.81,-0.01,0.02,0.0,21.59,-1603.46,632.79,9697.74,1755696241.1234512,14:24:01
1073010.0,74.0,100.0,99.0,3.0,-6.29,4.88,5.82,-0.0,0.01,0.0,21.57,-1603.6,632.9,9697.87,1755696241.2252524,14:24:01
1073031.0,74.0,100.0,99.0,3.0,-6.32,4.88,5.8,-0.0,-0.0,-0.0,21.59,-1603.73,633.0,9697.99,1755696241.2857754,14:24:01
1073052.0,74.0,100.0,99.0,3.0,-6.31,4.9,5.8,-0.0,-0.0,0.0,21.58,-1603.87,633.1,9698.11,1755696241.4290469,14:24:01
1073073.0,74.0,100.0,99.0,3.0,-6.3,4.87,5.78,-0.01,0.0,0.0,21.59,-1604.0,633.2,9698.23,1755696241.533901,14:24:01
1073094.0,74.0,100.0,99.0,3.0,-6.3,4.89,5.77,-0.01,0.0,0.0,21.6,-1604.13,633.31,9698.35,1755696241.584791,14:24:01
1073116.0,74.0,100.0,99.0,3.0,-6.28,4.88,5.76,-0.01,0.01,0.01,21.6,-1604.27,633.41,9698.48,1755696241.6374362,14:24:01
1073137.0,74.0,100.0,99.0,3.0,-6.31,4.9,5.8,-0.01,0.01,0.01,21.6,-1604.4,633.52,9698.6,1755696241.7421343,14:24:01
1073158.0,74.0,100.0,99.0,3.0,-6.29,4.86,5.79,-0.01,-0.0,0.0,21.6,-1604.53,633.62,9698.72,1755696241.8425071,14:24:01
1073179.0,74.0,100.0,99.0,3.0,-6.3,4.88,5.76,-0.01,-0.0,0.01,21.58,-1604.67,633.72,9698.84,1755696241.89826,14:24:01
1073200.0,74.0,100.0,99.0,3.0,-6.27,4.89,5.77,-0.01,0.0,0.01,21.59,-1604.8,633.82,9698.97,1755696242.073764,14:24:02
1073223.0,74.0,100.0,99.0,3.0,-6.3,4.87,5.79,-0.01,0.0,0.01,21.58,-1604.94,633.94,9699.1,1755696242.150599,14:24:02
1073285.0,74.0,100.0,99.0,3.0,-6.3,4.93,5.8,-0.02,-0.0,0.01,21.58,-1605.33,634.24,9699.46,1755696242.2696226,14:24:02
1073306.0,74.0,100.0,99.0,3.0,-6.26,4.89,5.75,-0.02,-0.0,0.01,21.62,-1605.47,634.34,9699.58,1755696242.3525913,14:24:02
1073328.0,74.0,100.0,99.0,3.0,-6.27,4.88,5.75,-0.01,0.0,0.0,21.6,-1605.6,634.45,9699.71,1755696242.4240346,14:24:02
1073349.0,74.0,100.0,99.0,3.0,-6.31,4.89,5.78,-0.0,0.01,0.01,21.58,-1605.74,634.55,9699.83,1755696242.478927,14:24:02
1073370.0,74.0,100.0,99.0,3.0,-6.31,4.9,5.82,-0.01,-0.0,0.01,21.59,-1605.87,634.66,9699.95,1755696242.5363693,14:24:02
1073391.0,74.0,100.0,99.0,3.0,-6.28,4.92,5.79,-0.01,-0.02,0.0,21.61,-1606.0,634.76,9700.07,1755696242.6768234,14:24:02
1073413.0,74.0,100.0,99.0,3.0,-6.28,4.9,5.73,-0.01,-0.0,0.01,21.59,-1606.14,634.87,9700.2,1755696242.767606,14:24:02
1073435.0,74.0,100.0,99.0,3.0,-6.28,4.91,5.75,-0.02,0.0,0.01,21.59,-1606.28,634.98,9700.32,1755696242.865904,14:24:02
1073456.0,74.0,100.0,99.0,3.0,-6.26,4.88,5.79,-0.01,-0.01,0.01,21.59,-1606.41,635.08,9700.45,1755696242.9721348,14:24:02
1073477.0,74.0,100.0,99.0,3.0,-6.29,4.9,5.74,-0.01,-0.0,0.01,21.59,-1606.54,635.18,9700.57,1755696243.0699265,14:24:03
1073498.0,74.0,100.0,99.0,3.0,-6.29,4.91,5.76,-0.01,0.01,0.01,21.6,-1606.67,635.29,9700.69,1755696243.1705263,14:24:03
1073519.0,74.0,100.0,99.0,3.0,-6.3,4.9,5.77,-0.02,0.01,0.01,21.58,-1606.8,635.39,9700.81,1755696243.2707508,14:24:03
1073541.0,74.0,100.0,99.0,3.0,-6.26,4.93,5.78,-0.02,0.01,0.01,21.59,-1606.94,635.5,9700.94,1755696243.3853004,14:24:03
1073562.0,74.0,100.0,99.0,3.0,-6.27,4.96,5.77,-0.02,0.01,0.01,21.59,-1607.07,635.6,9701.06,1755696243.4769409,14:24:03
1073584.0,74.0,100.0,99.0,3.0,-6.23,4.92,5.79,-0.02,0.01,0.01,21.58,-1607.21,635.71,9701.18,1755696243.5866969,14:24:03
1073605.0,74.0,100.0,99.0,3.0,-6.24,4.91,5.74,-0.03,-0.01,0.01,21.59,-1607.34,635.81,9701.3,1755696243.6862876,14:24:03
1073627.0,74.0,100.0,99.0,3.0,-6.23,4.89,5.71,-0.02,-0.01,0.01,21.6,-1607.48,635.92,9701.43,1755696243.7875202,14:24:03
1073648.0,74.0,100.0,99.0,3.0,-6.29,4.91,5.77,-0.02,0.01,0.01,21.6,-1607.61,636.02,9701.55,1755696245.8412528,14:24:05
1073669.0,74.0,100.0,99.0,3.0,-6.31,4.89,5.77,-0.03,-0.0,0.01,21.6,-1607.74,636.13,9701.67,1755696245.9379423,14:24:05
1073690.0,74.0,100.0,99.0,3.0,-6.28,4.9,5.76,-0.03,0.0,0.0,21.61,-1607.88,636.23,9701.79,1755696245.9381416,14:24:05
1073711.0,74.0,100.0,99.0,3.0,-6.27,4.92,5.73,-0.02,0.02,0.0,21.59,-1608.01,636.33,9701.91,1755696246.006113,14:24:06
1073733.0,74.0,100.0,99.0,3.0,-6.29,4.95,5.74,-0.03,0.02,0.01,21.59,-1608.15,636.44,9702.04,1755696246.0679858,14:24:06
1073754.0,74.0,100.0,99.0,3.0,-6.29,4.93,5.77,-0.03,0.02,0.01,21.59,-1608.28,636.54,9702.16,1755696246.1764307,14:24:06
1073775.0,74.0,100.0,99.0,3.0,-6.23,4.95,5.81,-0.03,0.01,0.01,21.58,-1608.41,636.65,9702.28,1755696246.3687947,14:24:06
1073796.0,74.0,100.0,99.0,3.0,-6.23,4.94,5.78,-0.03,0.02,0.01,21.59,-1608.54,636.75,9702.4,1755696248.2431037,14:24:08
1073817.0,74.0,100.0,99.0,3.0,-6.25,4.95,5.77,-0.03,0.02,0.01,21.59,-1608.67,636.86,9702.52,1755696248.2432656,14:24:08
1073839.0,74.0,100.0,99.0,3.0,-6.28,4.95,5.8,-0.03,-0.0,0.01,21.59,-1608.81,636.96,9702.65,1755696249.868215,14:24:09
1073860.0,74.0,100.0,99.0,3.0,-6.26,4.91,5.81,-0.03,-0.0,0.01,21.59,-1608.94,637.07,9702.77,1755696249.868431,14:24:09
1073882.0,74.0,100.0,99.0,3.0,-6.28,4.9,5.78,-0.03,0.01,0.01,21.59,-1609.08,637.18,9702.9,1755696250.0421476,14:24:10
1073903.0,74.0,100.0,99.0,3.0,-6.29,4.9,5.77,-0.03,-0.0,0.01,21.58,-1609.21,637.28,9703.02,1755696250.042307,14:24:10
1073925.0,74.0,100.0,99.0,3.0,-6.27,4.94,5.79,-0.03,-0.01,0.01,21.6,-1609.35,637.39,9703.15,1755696250.0981808,14:24:10
1073947.0,74.0,100.0,99.0,3.0,-6.26,4.96,5.76,-0.04,-0.0,0.01,21.6,-1609.49,637.5,9703.28,1755696250.237569,14:24:10
1073968.0,74.0,100.0,99.0,3.0,-6.28,4.92,5.74,-0.05,0.01,0.01,21.6,-1609.62,637.6,9703.4,1755696250.2893445,14:24:10
1073990.0,74.0,100.0,99.0,3.0,-6.26,4.92,5.78,-0.04,0.02,0.01,21.59,-1609.76,637.71,9703.52,1755696252.345338,14:24:12
1074011.0,74.0,100.0,99.0,3.0,-6.28,4.91,5.77,-0.04,0.01,0.01,21.6,-1609.89,637.81,9703.65,1755696252.4985082,14:24:12
1074032.0,74.0,100.0,99.0,3.0,-6.26,4.87,5.78,-0.04,0.01,0.01,21.59,-1610.02,637.91,9703.77,1755696252.4986272,14:24:12
1074054.0,74.0,100.0,99.0,3.0,-6.26,4.9,5.78,-0.03,0.02,0.0,21.59,-1610.16,638.02,9703.89,1755696256.85734,14:24:16
1074075.0,74.0,100.0,99.0,3.0,-6.28,4.93,5.81,-0.04,0.01,0.0,21.61,-1610.29,638.12,9704.02,1755696256.8575346,14:24:16
1074097.0,74.0,100.0,99.0,3.0,-6.26,4.92,5.79,-0.05,0.02,0.01,21.62,-1610.43,638.23,9704.14,1755696258.3764877,14:24:18
1074118.0,74.0,100.0,99.0,3.0,-6.26,4.9,5.76,-0.05,0.03,0.01,21.61,-1610.56,638.34,9704.26,1755696258.3766475,14:24:18
1074139.0,74.0,100.0,99.0,3.0,-6.26,4.92,5.81,-0.03,0.02,0.0,21.6,-1610.69,638.44,9704.39,1755696280.8602743,14:24:40
1074160.0,74.0,100.0,99.0,3.0,-6.26,4.95,5.84,-0.03,0.02,0.01,21.61,-1610.82,638.54,9704.51,1755696280.8654494,14:24:40
1074181.0,74.0,100.0,99.0,3.0,-6.26,4.93,5.83,-0.04,0.01,0.01,21.61,-1610.95,638.65,9704.63,1755696281.3453422,14:24:41
1074202.0,74.0,100.0,99.0,3.0,-6.27,4.91,5.8,-0.04,-0.01,0.0,21.61,-1611.08,638.75,9704.75,1755696281.345538,14:24:41
1074223.0,75.0,100.0,100.0,3.0,-6.23,4.93,5.82,-0.03,0.0,0.0,21.6,-1611.22,638.85,9704.87,1755696281.3817906,14:24:41
1074245.0,75.0,100.0,100.0,3.0,-6.24,4.93,5.82,-0.04,0.01,0.01,21.6,-1611.35,638.96,9705.0,1755696281.3818693,14:24:41
1074266.0,75.0,100.0,100.0,3.0,-6.27,4.89,5.81,-0.04,-0.0,0.0,21.59,-1611.48,639.06,9705.12,1755696281.3997083,14:24:41
1074287.0,75.0,100.0,100.0,3.0,-6.27,4.91,5.75,-0.03,-0.0,0.0,21.6,-1611.62,639.17,9705.25,1755696281.4685507,14:24:41
1074308.0,75.0,100.0,100.0,3.0,-6.28,4.91,5.76,-0.03,0.01,0.01,21.59,-1611.75,639.27,9705.37,1755696281.553938,14:24:41
1074329.0,75.0,100.0,100.0,3.0,-6.26,4.91,5.81,-0.03,0.02,0.01,21.59,-1611.88,639.37,9705.49,1755696281.6207144,14:24:41
1074351.0,75.0,100.0,100.0,3.0,-6.26,4.89,5.8,-0.04,0.01,0.01,21.59,-1612.02,639.48,9705.62,1755696281.6832228,14:24:41
1074372.0,75.0,100.0,100.0,3.0,-6.25,4.9,5.79,-0.04,0.03,0.01,21.61,-1612.15,639.58,9705.74,1755696281.7488723,14:24:41
1074394.0,75.0,100.0,100.0,3.0,-6.28,4.9,5.81,-0.04,0.03,0.01,21.59,-1612.29,639.69,9705.87,1755696281.829777,14:24:41
1074415.0,75.0,100.0,100.0,3.0,-6.23,4.89,5.8,-0.04,0.01,0.0,21.59,-1612.42,639.8,9705.99,1755696282.4749062,14:24:42
1074437.0,75.0,100.0,100.0,3.0,-6.21,4.9,5.75,-0.03,0.01,0.0,21.6,-1612.55,639.9,9706.12,1755696282.4750776,14:24:42
1074459.0,75.0,100.0,100.0,3.0,-6.27,4.88,5.8,-0.03,0.03,0.0,21.59,-1612.69,640.01,9706.24,1755696282.5008883,14:24:42
1074480.0,75.0,100.0,100.0,3.0,-6.3,4.87,5.87,-0.03,0.01,0.0,21.61,-1612.82,640.11,9706.36,1755696282.5010579,14:24:42
1074501.0,75.0,100.0,100.0,3.0,-6.25,4.88,5.86,-0.03,-0.01,-0.0,21.6,-1612.96,640.22,9706.49,1755696282.5414813,14:24:42
1074522.0,75.0,100.0,100.0,3.0,-6.24,4.9,5.77,-0.03,0.01,-0.0,21.59,-1613.09,640.32,9706.61,1755696282.736946,14:24:42
1074544.0,75.0,100.0,100.0,3.0,-6.25,4.89,5.77,-0.02,0.01,0.0,21.59,-1613.22,640.43,9706.74,1755696282.803487,14:24:42
1074565.0,75.0,100.0,100.0,3.0,-6.28,4.91,5.8,-0.02,-0.0,-0.0,21.59,-1613.36,640.53,9706.86,1755696282.8625052,14:24:42
1074586.0,75.0,100.0,100.0,3.0,-6.26,4.96,5.81,-0.02,-0.01,0.0,21.61,-1613.49,640.63,9706.98,1755696282.948652,14:24:42
1074608.0,75.0,100.0,100.0,3.0,-6.27,4.89,5.79,-0.03,0.01,0.0,21.6,-1613.63,640.74,9707.11,1755696283.0112336,14:24:43
1074629.0,75.0,100.0,100.0,3.0,-6.26,4.87,5.82,-0.03,0.01,0.0,21.6,-1613.76,640.84,9707.23,1755696283.081795,14:24:43
1074650.0,75.0,100.0,100.0,3.0,-6.27,4.9,5.8,-0.03,0.01,-0.0,21.59,-1613.89,640.95,9707.35,1755696283.2729635,14:24:43
1074672.0,75.0,100.0,100.0,3.0,-6.28,4.87,5.81,-0.03,0.02,0.0,21.59,-1614.03,641.05,9707.48,1755696283.3352344,14:24:43
1074693.0,75.0,100.0,100.0,3.0,-6.27,4.87,5.84,-0.03,0.02,-0.0,21.6,-1614.16,641.16,9707.6,1755696283.399917,14:24:43
1074716.0,75.0,100.0,100.0,3.0,-6.27,4.92,5.82,-0.03,0.01,-0.0,21.6,-1614.3,641.27,9707.74,1755696283.5077672,14:24:43
1074737.0,75.0,100.0,100.0,3.0,-6.28,4.91,5.84,-0.03,0.01,0.0,21.6,-1614.43,641.37,9707.86,1755696283.6366408,14:24:43
1074759.0,75.0,100.0,100.0,3.0,-6.25,4.9,5.82,-0.03,0.01,0.0,21.6,-1614.57,641.48,9707.99,1755696283.7201118,14:24:43
1074780.0,75.0,100.0,100.0,3.0,-6.26,4.9,5.81,-0.03,0.01,0.0,21.59,-1614.7,641.58,9708.11,1755696283.7857192,14:24:43
1074801.0,75.0,100.0,100.0,3.0,-6.29,4.89,5.79,-0.02,0.0,0.0,21.58,-1614.84,641.69,9708.23,1755696283.8477914,14:24:43
1074822.0,75.0,100.0,100.0,3.0,-6.29,4.87,5.8,-0.02,-0.0,0.0,21.6,-1614.97,641.79,9708.35,1755696283.9121444,14:24:43
1074843.0,75.0,100.0,100.0,3.0,-6.29,4.88,5.8,-0.02,0.0,0.0,21.59,-1615.1,641.89,9708.47,1755696283.9772801,14:24:43
1074865.0,75.0,100.0,100.0,3.0,-6.29,4.87,5.8,-0.02,0.01,0.0,21.6,-1615.24,642.0,9708.6,1755696284.1463356,14:24:44
1074886.0,75.0,100.0,100.0,3.0,-6.3,4.83,5.77,-0.03,0.01,0.0,21.59,-1615.37,642.1,9708.72,1755696284.2699153,14:24:44
1074908.0,75.0,100.0,100.0,3.0,-6.29,4.88,5.79,-0.01,0.01,-0.0,21.59,-1615.51,642.21,9708.85,1755696284.3351035,14:24:44
1074929.0,75.0,100.0,100.0,3.0,-6.3,4.92,5.83,-0.01,0.01,0.0,21.59,-1615.64,642.31,9708.97,1755696284.4428334,14:24:44
1074952.0,75.0,100.0,100.0,3.0,-6.25,4.89,5.78,-0.04,0.0,0.01,21.61,-1615.79,642.42,9709.11,1755696284.5727413,14:24:44
1074974.0,75.0,100.0,100.0,3.0,-6.27,4.84,5.72,-0.03,0.01,0.0,21.6,-1615.92,642.53,9709.23,1755696284.8945549,14:24:44
1074995.0,75.0,100.0,99.0,3.0,-6.28,4.87,5.76,-0.01,0.02,-0.01,21.6,-1616.05,642.63,9709.35,1755696285.4536567,14:24:45
1075017.0,75.0,100.0,99.0,3.0,-6.31,4.89,5.84,-0.01,0.01,0.0,21.6,-1616.19,642.74,9709.48,1755696285.4538732,14:24:45
1075038.0,75.0,100.0,99.0,3.0,-6.28,4.88,5.87,-0.03,-0.0,0.01,21.59,-1616.33,642.84,9709.6,1755696285.4698956,14:24:45
1075059.0,75.0,100.0,99.0,3.0,-6.28,4.89,5.8,-0.02,-0.0,-0.0,21.6,-1616.46,642.94,9709.73,1755696285.470055,14:24:45
1075080.0,75.0,100.0,99.0,3.0,-6.26,4.92,5.8,-0.01,0.01,-0.0,21.59,-1616.59,643.05,9709.85,1755696285.4839487,14:24:45
1075101.0,75.0,100.0,99.0,3.0,-6.29,4.92,5.8,-0.02,0.0,0.01,21.6,-1616.72,643.15,9709.97,1755696285.6807532,14:24:45
1075122.0,75.0,100.0,99.0,3.0,-6.3,4.91,5.79,-0.02,-0.02,0.01,21.6,-1616.85,643.25,9710.09,1755696285.784418,14:24:45
1075143.0,75.0,100.0,99.0,3.0,-6.29,4.91,5.76,-0.03,-0.01,0.0,21.59,-1616.99,643.36,9710.21,1755696285.8920968,14:24:45
1075165.0,75.0,100.0,99.0,3.0,-6.3,4.92,5.77,-0.03,0.02,0.01,21.58,-1617.12,643.46,9710.34,1755696286.145336,14:24:46
1075186.0,75.0,100.0,99.0,3.0,-6.29,4.88,5.81,-0.03,0.02,0.0,21.59,-1617.26,643.57,9710.46,1755696286.2793634,14:24:46
1075207.0,75.0,100.0,99.0,3.0,-6.28,4.88,5.75,-0.04,0.0,0.0,21.6,-1617.39,643.67,9710.58,1755696286.5514565,14:24:46
1075228.0,75.0,100.0,99.0,3.0,-6.27,4.89,5.74,-0.03,0.02,0.0,21.62,-1617.52,643.77,9710.7,1755696286.887481,14:24:46
1075250.0,75.0,100.0,99.0,3.0,-6.27,4.87,5.87,-0.03,0.03,0.01,21.59,-1617.66,643.88,9710.83,1755696286.8875756,14:24:46
1075273.0,75.0,100.0,99.0,3.0,-6.27,4.87,5.81,-0.04,0.01,0.0,21.59,-1617.8,643.99,9710.97,1755696288.7547858,14:24:48
1075294.0,75.0,100.0,99.0,3.0,-6.26,4.89,5.79,-0.04,0.01,0.0,21.6,-1617.93,644.09,9711.09,1755696288.7550478,14:24:48
1075316.0,75.0,100.0,99.0,3.0,-6.27,4.88,5.79,-0.03,0.02,0.0,21.59,-1618.07,644.2,9711.22,1755696288.7551842,14:24:48
1075337.0,75.0,100.0,99.0,3.0,-6.3,4.89,5.83,-0.03,0.01,0.01,21.59,-1618.2,644.3,9711.34,1755696288.7674484,14:24:48
1075360.0,75.0,100.0,99.0,3.0,-6.27,4.88,5.8,-0.03,-0.0,0.0,21.61,-1618.35,644.42,9711.47,1755696288.8356173,14:24:48
1075382.0,75.0,100.0,99.0,3.0,-6.28,4.88,5.79,-0.03,0.02,0.0,21.6,-1618.49,644.52,9711.6,1755696288.9606001,14:24:48
1075403.0,75.0,100.0,99.0,3.0,-6.28,4.87,5.79,-0.03,0.02,0.0,21.6,-1618.62,644.63,9711.72,1755696289.0206099,14:24:49
1075424.0,75.0,100.0,99.0,3.0,-6.28,4.88,5.83,-0.03,0.0,0.0,21.6,-1618.75,644.73,9711.84,1755696289.0866961,14:24:49
1075445.0,75.0,100.0,99.0,3.0,-6.25,4.89,5.79,-0.03,0.01,0.0,21.58,-1618.88,644.83,9711.97,1755696289.157341,14:24:49
1075466.0,75.0,100.0,99.0,3.0,-6.27,4.88,5.79,-0.03,0.02,0.0,21.57,-1619.01,644.93,9712.09,1755696289.3038754,14:24:49
1075488.0,75.0,100.0,99.0,3.0,-6.28,4.88,5.83,-0.03,0.02,0.0,21.59,-1619.15,645.04,9712.22,1755696289.4073272,14:24:49
1075509.0,75.0,100.0,99.0,3.0,-6.29,4.87,5.82,-0.03,0.0,0.0,21.59,-1619.28,645.14,9712.34,1755696289.4692526,14:24:49
1075531.0,75.0,100.0,99.0,3.0,-6.27,4.87,5.81,-0.03,0.0,0.0,21.6,-1619.42,645.25,9712.47,1755696289.5572886,14:24:49
1075552.0,75.0,100.0,99.0,3.0,-6.28,4.87,5.81,-0.03,0.01,0.0,21.59,-1619.55,645.35,9712.59,1755696289.6216934,14:24:49
1075573.0,75.0,100.0,99.0,3.0,-6.29,4.89,5.81,-0.02,0.01,0.0,21.6,-1619.68,645.46,9712.71,1755696289.685062,14:24:49
1075595.0,75.0,100.0,99.0,3.0,-6.28,4.88,5.78,-0.02,0.0,0.0,21.59,-1619.82,645.56,9712.84,1755696289.7474577,14:24:49
1075616.0,75.0,100.0,99.0,3.0,-6.29,4.87,5.82,-0.02,0.0,0.0,21.6,-1619.96,645.67,9712.96,1755696289.8141806,14:24:49
1075637.0,75.0,100.0,99.0,3.0,-6.28,4.88,5.82,-0.02,0.01,0.0,21.61,-1620.09,645.77,9713.08,1755696289.9872015,14:24:49
1075659.0,75.0,100.0,99.0,3.0,-6.29,4.86,5.83,-0.02,0.0,0.01,21.62,-1620.23,645.87,9713.21,1755696290.0735703,14:24:50
1075680.0,75.0,100.0,99.0,3.0,-6.28,4.87,5.81,-0.02,0.0,0.01,21.6,-1620.36,645.98,9713.33,1755696290.1381154,14:24:50
1075701.0,75.0,100.0,99.0,3.0,-6.26,4.88,5.78,-0.01,0.0,0.0,21.59,-1620.49,646.08,9713.46,1755696290.2229714,14:24:50
1075722.0,75.0,100.0,99.0,3.0,-6.3,4.89,5.83,-0.01,0.0,0.0,21.61,-1620.62,646.18,9713.58,1755696290.2900925,14:24:50
1075743.0,75.0,100.0,99.0,3.0,-6.3,4.9,5.83,-0.01,0.0,0.01,21.6,-1620.75,646.28,9713.7,1755696290.396225,14:24:50
1075764.0,75.0,100.0,99.0,3.0,-6.28,4.87,5.81,-0.02,-0.0,0.01,21.6,-1620.89,646.39,9713.82,1755696290.5032127,14:24:50
1075786.0,75.0,100.0,99.0,3.0,-6.29,4.87,5.8,-0.0,0.0,0.01,21.6,-1621.02,646.49,9713.95,1755696290.5731113,14:24:50
1075807.0,75.0,100.0,99.0,3.0,-6.3,4.92,5.84,0.01,-0.0,0.0,21.61,-1621.16,646.6,9714.07,1755696290.6351895,14:24:50
1075829.0,75.0,100.0,99.0,3.0,-6.28,4.91,5.83,-0.01,-0.02,0.01,21.62,-1621.29,646.71,9714.2,1755696290.7024133,14:24:50
1075850.0,75.0,100.0,99.0,3.0,-6.25,4.88,5.77,-0.01,-0.01,0.01,21.59,-1621.43,646.81,9714.32,1755696290.8034542,14:24:50
1075872.0,75.0,100.0,99.0,3.0,-6.24,4.87,5.72,-0.0,-0.0,0.01,21.61,-1621.56,646.92,9714.45,1755696290.892887,14:24:50
1075894.0,75.0,100.0,99.0,3.0,-6.29,4.88,5.79,0.01,-0.0,0.01,21.6,-1621.7,647.02,9714.57,1755696290.9521065,14:24:50
1075915.0,75.0,100.0,99.0,3.0,-6.27,4.87,5.85,0.0,-0.01,0.01,21.61,-1621.83,647.13,9714.7,1755696291.124256,14:24:51
1075937.0,75.0,100.0,99.0,3.0,-6.25,4.88,5.81,0.0,-0.02,0.0,21.59,-1621.97,647.23,9714.82,1755696291.4435272,14:24:51
1075958.0,75.0,100.0,99.0,3.0,-6.23,4.93,5.79,0.01,-0.0,-0.0,21.59,-1622.1,647.34,9714.95,1755696291.530097,14:24:51
1075979.0,75.0,100.0,99.0,3.0,-6.27,4.94,5.78,-0.0,0.01,0.01,21.59,-1622.23,647.44,9715.07,1755696291.658513,14:24:51
1076001.0,75.0,100.0,99.0,3.0,-6.25,4.92,5.78,-0.0,-0.02,0.01,21.59,-1622.37,647.55,9715.19,1755696291.8513997,14:24:51
1076022.0,75.0,100.0,99.0,3.0,-6.26,4.94,5.76,-0.0,-0.01,0.0,21.6,-1622.5,647.65,9715.32,1755696291.9162385,14:24:51
1076044.0,75.0,100.0,99.0,3.0,-6.29,4.95,5.75,-0.0,0.0,0.01,21.59,-1622.64,647.76,9715.44,1755696292.0253682,14:24:52
1076065.0,75.0,100.0,99.0,3.0,-6.28,4.93,5.82,-0.01,0.0,0.01,21.59,-1622.77,647.86,9715.56,1755696292.0829144,14:24:52
1076087.0,75.0,100.0,99.0,3.0,-6.23,4.91,5.76,-0.02,-0.0,0.0,21.59,-1622.91,647.97,9715.69,1755696292.3666542,14:24:52
1076108.0,75.0,100.0,99.0,3.0,-6.25,4.93,5.77,-0.01,0.01,0.0,21.6,-1623.04,648.08,9715.81,1755696292.5015767,14:24:52
1076129.0,75.0,100.0,99.0,3.0,-6.24,4.96,5.8,-0.02,0.01,0.01,21.6,-1623.17,648.18,9715.93,1755696292.7040727,14:24:52
1076150.0,75.0,100.0,99.0,3.0,-6.22,4.94,5.78,-0.02,0.0,0.01,21.58,-1623.3,648.28,9716.05,1755696292.873755,14:24:52
1076172.0,75.0,100.0,99.0,3.0,-6.21,4.93,5.76,-0.02,0.01,0.0,21.61,-1623.44,648.39,9716.18,1755696292.9359698,14:24:52
1076194.0,75.0,100.0,99.0,3.0,-6.24,4.92,5.75,-0.02,0.02,0.0,21.59,-1623.58,648.5,9716.31,1755696293.0014374,14:24:53
1076215.0,75.0,100.0,99.0,3.0,-6.27,4.92,5.82,-0.02,0.01,0.01,21.59,-1623.71,648.6,9716.43,1755696293.069264,14:24:53
1076237.0,75.0,100.0,99.0,3.0,-6.26,4.93,5.81,-0.02,-0.01,0.0,21.6,-1623.85,648.71,9716.56,1755696293.132348,14:24:53
1076259.0,75.0,100.0,99.0,3.0,-6.25,4.94,5.74,-0.03,0.02,0.0,21.61,-1623.98,648.82,9716.68,1755696293.1959405,14:24:53
1076281.0,75.0,100.0,99.0,3.0,-6.27,4.94,5.77,-0.02,0.03,0.01,21.62,-1624.12,648.93,9716.81,1755696293.387545,14:24:53
1076302.0,75.0,100.0,99.0,3.0,-6.27,4.95,5.82,-0.02,0.01,0.01,21.6,-1624.25,649.03,9716.93,1755696293.4539707,14:24:53
1076323.0,75.0,100.0,99.0,3.0,-6.23,4.94,5.82,-0.02,0.0,0.01,21.6,-1624.38,649.14,9717.06,1755696293.525005,14:24:53
1076344.0,75.0,100.0,99.0,3.0,-6.24,4.94,5.82,-0.02,0.01,0.01,21.6,-1624.51,649.24,9717.18,1755696293.7050653,14:24:53
1076366.0,75.0,100.0,99.0,3.0,-6.25,4.94,5.8,-0.02,0.01,0.0,21.6,-1624.65,649.35,9717.31,1755696293.9202487,14:24:53
1076388.0,75.0,100.0,99.0,3.0,-6.22,4.96,5.78,-0.02,-0.0,0.0,21.6,-1624.79,649.46,9717.43,1755696293.9872024,14:24:53
1076410.0,75.0,100.0,99.0,3.0,-6.27,4.96,5.77,-0.02,-0.0,0.01,21.6,-1624.93,649.57,9717.56,1755696294.0908291,14:24:54
1076431.0,75.0,100.0,99.0,3.0,-6.26,4.93,5.79,-0.02,0.0,0.01,21.6,-1625.06,649.67,9717.68,1755696294.1423476,14:24:54
1076452.0,75.0,100.0,99.0,3.0,-6.27,4.93,5.78,-0.02,0.0,0.0,21.59,-1625.19,649.77,9717.8,1755696294.2837734,14:24:54
1076473.0,75.0,100.0,99.0,3.0,-6.24,4.93,5.77,-0.02,0.0,0.0,21.58,-1625.32,649.88,9717.92,1755696294.373539,14:24:54
1076577.0,75.0,100.0,99.0,3.0,-6.24,4.97,5.77,-0.01,0.01,0.0,21.59,-1625.97,650.39,9718.52,1755696294.5820324,14:24:54
1076599.0,75.0,100.0,99.0,3.0,-6.24,4.92,5.81,-0.01,-0.0,0.01,21.59,-1626.11,650.5,9718.65,1755696294.651051,14:24:54
1076620.0,75.0,100.0,99.0,3.0,-6.22,4.92,5.76,-0.01,-0.01,0.0,21.57,-1626.24,650.6,9718.77,1755696294.7197673,14:24:54
1076641.0,24.0,100.0,99.0,3.0,-6.23,4.97,5.79,-0.01,0.0,0.0,21.57,-1626.37,650.71,9718.89,1755696294.8009105,14:24:54
1076662.0,24.0,100.0,99.0,3.0,-6.26,4.92,5.77,-0.02,-0.0,0.01,21.59,-1626.5,650.81,9719.01,1755696294.870865,14:24:54
1076684.0,75.0,100.0,99.0,3.0,-6.23,4.93,5.78,-0.0,-0.0,-0.0,21.6,-1626.64,650.92,9719.14,1755696295.0150874,14:24:55
1076705.0,75.0,100.0,99.0,3.0,-6.25,5.0,5.78,-0.0,0.0,-0.0,21.6,-1626.77,651.03,9719.26,1755696295.0973878,14:24:55
1076726.0,75.0,100.0,99.0,3.0,-6.22,4.98,5.8,-0.03,-0.01,0.01,21.59,-1626.9,651.13,9719.38,1755696295.208278,14:24:55
1076747.0,75.0,100.0,99.0,3.0,-6.22,4.93,5.74,-0.03,-0.01,0.01,21.59,-1627.03,651.23,9719.5,1755696295.2942379,14:24:55
1076768.0,75.0,100.0,99.0,3.0,-6.24,4.96,5.72,-0.01,0.0,-0.0,21.59,-1627.16,651.34,9719.62,1755696295.3553784,14:24:55
1076789.0,75.0,100.0,99.0,3.0,-6.25,4.98,5.77,-0.02,0.02,0.0,21.6,-1627.29,651.44,9719.75,1755696295.5102582,14:24:55
1076811.0,75.0,100.0,99.0,3.0,-6.28,4.95,5.78,-0.03,0.01,0.01,21.59,-1627.43,651.55,9719.87,1755696295.6137078,14:24:55
1076832.0,75.0,100.0,99.0,3.0,-6.22,4.94,5.8,-0.03,0.01,0.0,21.59,-1627.56,651.66,9719.99,1755696295.7170863,14:24:55
1076855.0,75.0,100.0,99.0,3.0,-6.21,4.97,5.73,-0.03,0.02,-0.0,21.59,-1627.7,651.77,9720.13,1755696295.7773561,14:24:55
1076876.0,75.0,100.0,99.0,3.0,-6.24,4.96,5.76,-0.04,0.02,0.0,21.59,-1627.84,651.87,9720.25,1755696295.844448,14:24:55
1076897.0,75.0,100.0,99.0,3.0,-6.24,4.95,5.77,-0.04,0.0,0.0,21.6,-1627.97,651.98,9720.37,1755696295.9137306,14:24:55
1076918.0,75.0,100.0,99.0,3.0,-6.28,4.96,5.78,-0.03,0.01,-0.0,21.59,-1628.1,652.08,9720.49,1755696296.0366583,14:24:56
1076939.0,75.0,100.0,99.0,3.0,-6.28,4.97,5.8,-0.04,0.02,0.01,21.59,-1628.23,652.19,9720.61,1755696296.123852,14:24:56
1076960.0,75.0,100.0,99.0,3.0,-6.26,4.95,5.83,-0.04,0.01,0.0,21.59,-1628.36,652.29,9720.73,1755696296.1949391,14:24:56
1076981.0,75.0,100.0,99.0,3.0,-6.25,4.96,5.77,-0.04,0.01,0.0,21.59,-1628.49,652.39,9720.86,1755696296.3321195,14:24:56
1077003.0,75.0,100.0,99.0,3.0,-6.26,4.97,5.76,-0.03,0.02,0.0,21.58,-1628.63,652.5,9720.98,1755696296.3912337,14:24:56
1077024.0,75.0,100.0,99.0,3.0,-6.23,4.95,5.83,-0.04,0.02,0.0,21.6,-1628.76,652.61,9721.1,1755696296.4566054,14:24:56
1077045.0,75.0,100.0,99.0,3.0,-6.23,4.94,5.79,-0.04,-0.0,0.0,21.6,-1628.89,652.71,9721.23,1755696296.5164967,14:24:56
1077066.0,75.0,100.0,99.0,3.0,-6.23,4.93,5.74,-0.03,0.01,-0.0,21.6,-1629.02,652.81,9721.35,1755696296.6590683,14:24:56
1077087.0,75.0,100.0,99.0,3.0,-6.26,4.92,5.8,-0.03,0.02,0.0,21.59,-1629.15,652.92,9721.47,1755696296.7238874,14:24:56
1077110.0,75.0,100.0,99.0,3.0,-6.29,4.95,5.84,-0.03,0.0,0.0,21.59,-1629.3,653.03,9721.6,1755696296.7820578,14:24:56
1077131.0,75.0,100.0,99.0,3.0,-6.27,4.94,5.79,-0.03,-0.01,0.0,21.6,-1629.43,653.13,9721.72,1755696296.938452,14:24:56
1077152.0,75.0,100.0,99.0,3.0,-6.25,4.95,5.75,-0.03,0.02,0.0,21.58,-1629.56,653.24,9721.85,1755696296.997959,14:24:56
1077173.0,75.0,100.0,99.0,3.0,-6.25,4.95,5.81,-0.03,0.03,0.01,21.59,-1629.69,653.34,9721.97,1755696297.2368047,14:24:57
1077195.0,75.0,100.0,99.0,3.0,-6.25,4.93,5.78,-0.03,0.01,0.01,21.6,-1629.83,653.45,9722.09,1755696297.470725,14:24:57
1077218.0,75.0,100.0,99.0,3.0,-6.22,4.95,5.8,-0.03,0.0,0.0,21.6,-1629.97,653.57,9722.23,1755696297.839733,14:24:57
1077239.0,75.0,100.0,99.0,3.0,-6.25,4.94,5.75,-0.04,0.02,0.0,21.62,-1630.11,653.67,9722.35,1755696297.8399045,14:24:57
1077260.0,75.0,100.0,99.0,3.0,-6.26,4.94,5.78,-0.03,0.02,0.0,21.57,-1630.24,653.77,9722.47,1755696298.2168248,14:24:58
1077281.0,75.0,100.0,99.0,3.0,-6.28,4.93,5.79,-0.03,0.01,0.0,21.6,-1630.37,653.88,9722.59,1755696298.2169876,14:24:58
1077302.0,75.0,100.0,99.0,3.0,-6.27,4.94,5.79,-0.04,0.01,0.01,21.6,-1630.5,653.98,9722.71,1755696298.4269776,14:24:58
1077324.0,75.0,100.0,99.0,3.0,-6.28,4.9,5.79,-0.03,0.02,0.01,21.62,-1630.64,654.09,9722.84,1755696298.42726,14:24:58
1077346.0,75.0,100.0,99.0,3.0,-6.25,4.91,5.8,-0.03,0.02,0.0,21.6,-1630.78,654.2,9722.97,1755696298.498904,14:24:58
1077367.0,75.0,100.0,99.0,3.0,-6.25,4.92,5.79,-0.04,0.01,0.01,21.59,-1630.91,654.3,9723.09,1755696298.82337,14:24:58
1077389.0,75.0,100.0,99.0,3.0,-6.26,4.94,5.81,-0.03,0.02,0.0,21.6,-1631.05,654.41,9723.22,1755696298.8235633,14:24:58
1077410.0,75.0,100.0,99.0,3.0,-6.25,4.92,5.79,-0.03,0.02,0.01,21.59,-1631.18,654.51,9723.34,1755696299.1327827,14:24:59
1077431.0,75.0,100.0,99.0,3.0,-6.27,4.94,5.82,-0.03,0.01,0.01,21.59,-1631.31,654.61,9723.46,1755696299.221889,14:24:59
1077452.0,75.0,100.0,99.0,3.0,-6.25,4.94,5.79,-0.04,0.01,0.01,21.58,-1631.44,654.72,9723.58,1755696299.285929,14:24:59
1077473.0,75.0,100.0,99.0,3.0,-6.24,4.91,5.79,-0.03,0.02,0.01,21.58,-1631.57,654.82,9723.7,1755696299.3457384,14:24:59
1077494.0,75.0,100.0,99.0,3.0,-6.25,4.9,5.79,-0.03,0.01,0.01,21.59,-1631.7,654.92,9723.83,1755696299.9283307,14:24:59
1077516.0,75.0,100.0,99.0,3.0,-6.25,4.89,5.79,-0.03,0.01,0.01,21.59,-1631.84,655.03,9723.95,1755696299.9285054,14:24:59
1077537.0,75.0,100.0,99.0,3.0,-6.26,4.9,5.74,-0.03,0.01,0.0,21.59,-1631.97,655.14,9724.08,1755696300.059117,14:25:00
1077558.0,75.0,100.0,99.0,3.0,-6.27,4.96,5.82,-0.02,0.01,0.0,21.59,-1632.1,655.24,9724.2,1755696300.0592663,14:25:00
1077579.0,75.0,100.0,99.0,3.0,-6.27,4.96,5.83,-0.03,0.01,0.01,21.59,-1632.23,655.34,9724.32,1755696300.1204073,14:25:00
1077600.0,75.0,100.0,99.0,3.0,-6.25,4.92,5.79,-0.04,0.01,0.01,21.59,-1632.37,655.45,9724.44,1755696300.2117312,14:25:00
1077622.0,75.0,100.0,99.0,3.0,-6.25,4.88,5.73,-0.03,0.01,0.01,21.6,-1632.5,655.55,9724.57,1755696300.263079,14:25:00
1077643.0,75.0,100.0,99.0,3.0,-6.25,4.92,5.81,-0.02,0.02,0.0,21.6,-1632.63,655.66,9724.69,1755696300.4209132,14:25:00
1077664.0,75.0,100.0,99.0,3.0,-6.28,4.91,5.82,-0.03,0.01,0.01,21.6,-1632.77,655.76,9724.81,1755696300.478262,14:25:00
1077686.0,75.0,100.0,99.0,3.0,-6.27,4.93,5.8,-0.03,0.0,0.01,21.58,-1632.9,655.87,9724.94,1755696300.631506,14:25:00
1077707.0,75.0,100.0,99.0,3.0,-6.25,4.93,5.83,-0.03,0.0,0.0,21.6,-1633.04,655.97,9725.06,1755696300.7458267,14:25:00
1077729.0,75.0,100.0,99.0,3.0,-6.24,4.95,5.81,-0.02,0.01,0.01,21.6,-1633.17,656.08,9725.19,1755696300.8449287,14:25:00
1077750.0,75.0,100.0,99.0,3.0,-6.25,4.94,5.78,-0.03,0.01,0.01,21.61,-1633.3,656.19,9725.31,1755696300.9288247,14:25:00
1077771.0,75.0,100.0,99.0,3.0,-6.24,4.95,5.8,-0.03,-0.0,0.01,21.61,-1633.44,656.29,9725.43,1755696301.035467,14:25:01
1077792.0,75.0,100.0,99.0,3.0,-6.26,4.93,5.75,-0.04,0.0,0.01,21.61,-1633.57,656.39,9725.55,1755696301.0870624,14:25:01
1077813.0,75.0,100.0,99.0,3.0,-6.29,4.89,5.78,-0.03,0.01,0.01,21.58,-1633.7,656.5,9725.67,1755696301.238543,14:25:01
1077835.0,75.0,100.0,99.0,3.0,-6.27,4.89,5.81,-0.03,0.01,0.0,21.6,-1633.84,656.6,9725.8,1755696301.3015947,14:25:01
1077856.0,75.0,100.0,99.0,3.0,-6.28,4.92,5.77,-0.03,0.01,0.01,21.62,-1633.97,656.71,9725.92,1755696301.3606133,14:25:01
1077878.0,75.0,100.0,99.0,3.0,-6.27,4.91,5.79,-0.03,0.02,0.01,21.61,-1634.11,656.81,9726.05,1755696301.4401455,14:25:01
1077899.0,75.0,100.0,99.0,3.0,-6.26,4.92,5.81,-0.03,0.02,0.01,21.6,-1634.24,656.92,9726.17,1755696301.55147,14:25:01
1077920.0,75.0,100.0,99.0,3.0,-6.23,4.93,5.82,-0.04,0.01,0.0,21.59,-1634.37,657.02,9726.29,1755696301.603277,14:25:01
1077941.0,75.0,100.0,99.0,3.0,-6.26,4.91,5.72,-0.03,0.01,0.0,21.6,-1634.5,657.12,9726.42,1755696301.7639287,14:25:01
1077963.0,75.0,100.0,99.0,3.0,-6.27,4.92,5.81,-0.03,0.03,0.01,21.6,-1634.64,657.23,9726.54,1755696301.9578278,14:25:01
1077984.0,75.0,100.0,99.0,3.0,-6.28,4.91,5.87,-0.03,0.01,0.01,21.6,-1634.77,657.34,9726.67,1755696302.0563111,14:25:02
1078005.0,75.0,100.0,99.0,3.0,-6.25,4.9,5.78,-0.04,-0.01,0.01,21.6,-1634.9,657.44,9726.79,1755696302.1631186,14:25:02
1078027.0,75.0,100.0,99.0,3.0,-6.24,4.91,5.76,-0.03,0.02,0.01,21.58,-1635.04,657.55,9726.92,1755696302.2272246,14:25:02
1078048.0,73.0,100.0,99.0,3.0,-6.27,4.9,5.81,-0.03,0.02,0.01,21.61,-1635.17,657.65,9727.04,1755696302.2841284,14:25:02
1078069.0,73.0,100.0,99.0,3.0,-6.26,4.91,5.8,-0.03,0.01,0.0,21.62,-1635.3,657.75,9727.16,1755696302.4708428,14:25:02
1078090.0,73.0,100.0,99.0,3.0,-6.23,4.91,5.79,-0.03,0.01,0.01,21.6,-1635.43,657.86,9727.28,1755696302.5299911,14:25:02
1078111.0,73.0,100.0,99.0,3.0,-6.24,4.91,5.77,-0.03,0.02,0.0,21.62,-1635.56,657.96,9727.4,1755696302.5908,14:25:02
1078134.0,73.0,100.0,99.0,3.0,-6.27,4.88,5.8,-0.02,0.01,0.0,21.59,-1635.71,658.07,9727.53,1755696302.6777582,14:25:02
1078155.0,75.0,100.0,99.0,3.0,-6.25,4.92,5.8,-0.03,0.0,0.0,21.59,-1635.84,658.18,9727.66,1755696302.7330244,14:25:02
1078176.0,75.0,100.0,99.0,3.0,-6.27,4.93,5.8,-0.02,0.01,0.0,21.61,-1635.97,658.28,9727.78,1755696302.8940618,14:25:02
1078197.0,73.0,100.0,99.0,3.0,-6.26,4.91,5.78,-0.03,0.01,0.01,21.61,-1636.1,658.38,9727.9,1755696302.956141,14:25:02
1078219.0,73.0,100.0,99.0,3.0,-6.27,4.93,5.77,-0.03,0.01,0.01,21.61,-1636.24,658.49,9728.03,1755696303.0242932,14:25:03
1078242.0,73.0,100.0,99.0,3.0,-6.25,4.91,5.79,-0.03,0.01,0.01,21.6,-1636.38,658.6,9728.16,1755696303.089093,14:25:03
1078263.0,73.0,100.0,99.0,3.0,-6.27,4.9,5.79,-0.03,0.01,0.01,21.6,-1636.52,658.71,9728.28,1755696303.1826513,14:25:03
1078285.0,73.0,100.0,99.0,3.0,-6.27,4.9,5.76,-0.02,0.01,0.01,21.61,-1636.65,658.81,9728.41,1755696303.3024826,14:25:03
1078306.0,73.0,100.0,99.0,3.0,-6.28,4.92,5.8,-0.02,0.01,0.01,21.62,-1636.79,658.92,9728.53,1755696303.3663518,14:25:03
1078328.0,73.0,100.0,99.0,3.0,-6.26,4.91,5.78,-0.02,0.01,0.0,21.6,-1636.92,659.03,9728.66,1755696303.4298317,14:25:03
1078349.0,73.0,100.0,99.0,3.0,-6.24,4.93,5.82,-0.03,0.01,0.01,21.6,-1637.05,659.13,9728.78,1755696303.7769682,14:25:03
1078370.0,73.0,100.0,99.0,3.0,-6.23,4.91,5.77,-0.02,0.01,0.01,21.61,-1637.19,659.23,9728.9,1755696303.7771463,14:25:03
1078391.0,73.0,100.0,99.0,3.0,-6.27,4.92,5.82,-0.02,0.01,0.0,21.61,-1637.32,659.34,9729.02,1755696303.832709,14:25:03
1078412.0,73.0,100.0,99.0,3.0,-6.27,4.95,5.84,-0.02,0.0,0.01,21.6,-1637.45,659.44,9729.15,1755696303.8975315,14:25:03
1078433.0,73.0,100.0,99.0,3.0,-6.25,4.92,5.78,-0.02,0.0,0.0,21.61,-1637.58,659.54,9729.27,1755696304.0072699,14:25:04
1078454.0,73.0,100.0,99.0,3.0,-6.28,4.93,5.76,-0.02,0.01,0.0,21.6,-1637.71,659.65,9729.39,1755696304.1095903,14:25:04
1078475.0,73.0,100.0,99.0,3.0,-6.26,4.93,5.78,-0.02,0.01,0.0,21.6,-1637.84,659.75,9729.51,1755696304.2187102,14:25:04
1078496.0,73.0,100.0,99.0,3.0,-6.24,4.93,5.77,-0.03,0.0,0.01,21.6,-1637.97,659.85,9729.63,1755696304.32646,14:25:04
1078517.0,73.0,100.0,99.0,3.0,-6.3,4.91,5.74,-0.02,0.01,0.0,21.6,-1638.11,659.96,9729.75,1755696304.3866076,14:25:04
1078539.0,73.0,100.0,99.0,3.0,-6.26,4.94,5.8,-0.01,0.01,-0.0,21.6,-1638.24,660.06,9729.88,1755696304.4525108,14:25:04
1078560.0,73.0,100.0,99.0,3.0,-6.28,4.94,5.83,-0.02,0.01,0.01,21.61,-1638.38,660.17,9730.0,1755696304.5244722,14:25:04
1078581.0,73.0,100.0,99.0,3.0,-6.28,4.92,5.83,-0.03,-0.0,0.01,21.63,-1638.51,660.27,9730.12,1755696304.6157143,14:25:04
1078602.0,73.0,100.0,99.0,3.0,-6.27,4.92,5.74,-0.02,0.0,-0.0,21.6,-1638.64,660.38,9730.24,1755696304.6741443,14:25:04
1078623.0,73.0,100.0,99.0,3.0,-6.24,4.94,5.8,-0.02,0.02,0.0,21.6,-1638.77,660.48,9730.37,1755696304.8197887,14:25:04
1078645.0,73.0,100.0,99.0,3.0,-6.26,4.91,5.81,-0.03,0.0,0.01,21.6,-1638.91,660.59,9730.49,1755696304.8867705,14:25:04
1078666.0,73.0,100.0,99.0,3.0,-6.24,4.92,5.76,-0.02,-0.0,0.0,21.59,-1639.04,660.69,9730.61,1755696304.9423378,14:25:04
1078687.0,73.0,100.0,99.0,3.0,-6.26,4.92,5.77,-0.02,0.01,0.01,21.62,-1639.17,660.79,9730.74,1755696305.1798296,14:25:05
1078708.0,73.0,100.0,99.0,3.0,-6.28,4.9,5.82,-0.02,0.02,0.01,21.61,-1639.3,660.9,9730.86,1755696305.2423103,14:25:05
1078730.0,73.0,100.0,99.0,3.0,-6.26,4.93,5.83,-0.02,-0.0,0.0,21.61,-1639.44,661.01,9730.99,1755696305.3000546,14:25:05
1078751.0,73.0,100.0,99.0,3.0,-6.28,4.93,5.8,-0.02,0.01,0.0,21.58,-1639.57,661.11,9731.11,1755696305.4382164,14:25:05
1078773.0,73.0,100.0,99.0,3.0,-6.26,4.95,5.76,-0.02,0.02,0.01,21.6,-1639.71,661.22,9731.23,1755696305.540139,14:25:05
1078794.0,73.0,100.0,99.0,3.0,-6.25,4.96,5.81,-0.03,0.0,0.01,21.59,-1639.84,661.32,9731.36,1755696305.606857,14:25:05
1078815.0,73.0,100.0,99.0,3.0,-6.22,4.94,5.75,-0.03,-0.01,0.01,21.59,-1639.97,661.43,9731.48,1755696305.666309,14:25:05
1078838.0,73.0,100.0,99.0,3.0,-6.23,4.94,5.73,-0.02,0.01,0.0,21.61,-1640.12,661.54,9731.61,1755696305.7187285,14:25:05
1078859.0,73.0,100.0,99.0,3.0,-6.28,4.9,5.81,-0.02,0.01,0.0,21.6,-1640.25,661.64,9731.73,1755696305.7848935,14:25:05
1078881.0,73.0,100.0,99.0,3.0,-6.27,4.91,5.82,-0.03,-0.01,0.0,21.6,-1640.39,661.75,9731.86,1755696305.9510415,14:25:05
1078902.0,73.0,100.0,99.0,3.0,-6.28,4.92,5.77,-0.03,-0.0,0.0,21.6,-1640.52,661.85,9731.98,1755696306.0298102,14:25:06
1078923.0,73.0,100.0,99.0,3.0,-6.26,4.95,5.73,-0.03,0.03,0.0,21.59,-1640.65,661.96,9732.1,1755696306.095742,14:25:06
1078946.0,73.0,100.0,99.0,3.0,-6.25,4.92,5.78,-0.03,0.03,0.01,21.61,-1640.79,662.07,9732.23,1755696306.2907233,14:25:06
1078968.0,73.0,100.0,99.0,3.0,-6.26,4.89,5.79,-0.02,0.01,0.0,21.61,-1640.93,662.18,9732.36,1755696306.3537798,14:25:06
1078989.0,73.0,100.0,99.0,3.0,-6.23,4.91,5.83,-0.02,0.01,0.0,21.62,-1641.06,662.28,9732.48,1755696306.4599485,14:25:06
1079010.0,73.0,100.0,99.0,3.0,-6.26,4.93,5.84,-0.01,0.02,0.0,21.6,-1641.19,662.38,9732.6,1755696306.5685248,14:25:06
1079031.0,73.0,100.0,99.0,3.0,-6.27,4.92,5.84,-0.02,0.01,0.0,21.6,-1641.32,662.49,9732.73,1755696306.6765223,14:25:06
1079053.0,73.0,100.0,99.0,3.0,-6.25,4.96,5.78,-0.01,-0.0,0.0,21.61,-1641.46,662.6,9732.86,1755696306.7698963,14:25:06
1079074.0,73.0,100.0,99.0,3.0,-6.28,4.94,5.77,-0.01,0.0,0.0,21.62,-1641.59,662.7,9732.98,1755696306.869604,14:25:06
1079095.0,73.0,100.0,99.0,3.0,-6.24,4.94,5.77,-0.01,-0.0,0.0,21.59,-1641.73,662.8,9733.1,1755696306.9741917,14:25:06
1079116.0,73.0,100.0,99.0,3.0,-6.25,4.92,5.74,-0.01,-0.01,0.0,21.61,-1641.86,662.91,9733.22,1755696307.0824406,14:25:07
1079137.0,73.0,100.0,99.0,3.0,-6.25,4.91,5.74,-0.01,-0.0,0.01,21.6,-1641.99,663.01,9733.34,1755696307.1759984,14:25:07
1079159.0,73.0,100.0,99.0,3.0,-6.33,4.92,5.75,-0.01,0.01,-0.0,21.61,-1642.13,663.12,9733.46,1755696307.2522373,14:25:07
1079180.0,73.0,100.0,99.0,3.0,-6.26,4.96,5.77,-0.0,0.01,-0.0,21.61,-1642.26,663.22,9733.59,1755696307.3072417,14:25:07
1079201.0,73.0,100.0,99.0,3.0,-6.26,4.96,5.79,-0.01,0.01,0.0,21.62,-1642.39,663.33,9733.71,1755696307.5090756,14:25:07
1079222.0,73.0,100.0,99.0,3.0,-6.25,4.96,5.77,-0.01,0.02,0.0,21.6,-1642.52,663.43,9733.83,1755696307.5938425,14:25:07
1079244.0,73.0,100.0,99.0,3.0,-6.25,4.95,5.77,-0.01,0.01,0.0,21.62,-1642.66,663.54,9733.96,1755696307.7117186,14:25:07
1079266.0,73.0,100.0,99.0,3.0,-6.27,4.94,5.79,-0.0,-0.0,0.0,21.61,-1642.8,663.65,9734.08,1755696307.7755952,14:25:07
1079287.0,73.0,100.0,99.0,3.0,-6.3,4.97,5.82,0.0,0.0,0.01,21.59,-1642.93,663.75,9734.2,1755696308.1381521,14:25:08
1079309.0,73.0,100.0,99.0,3.0,-6.32,4.93,5.87,0.02,0.0,0.01,21.61,-1643.07,663.86,9734.33,1755696308.138351,14:25:08
1079330.0,73.0,100.0,99.0,3.0,-6.29,4.92,5.91,0.02,-0.02,0.02,21.6,-1643.2,663.96,9734.46,1755696308.1971521,14:25:08
1079352.0,73.0,100.0,99.0,3.0,-6.26,4.93,5.87,0.02,-0.05,0.01,21.61,-1643.34,664.07,9734.59,1755696308.2638443,14:25:08
1079374.0,73.0,100.0,99.0,3.0,-6.12,4.95,5.78,0.03,-0.06,0.01,21.61,-1643.47,664.18,9734.71,1755696308.32014,14:25:08
1079395.0,73.0,100.0,99.0,3.0,-6.16,5.04,5.66,0.01,-0.09,0.01,21.61,-1643.6,664.29,9734.83,1755696308.4072223,14:25:08
1079417.0,73.0,100.0,99.0,3.0,-6.18,5.03,5.55,-0.02,-0.08,0.02,21.61,-1643.74,664.4,9734.96,1755696308.4741738,14:25:08
1079438.0,73.0,100.0,99.0,3.0,-6.25,4.99,5.53,-0.01,-0.04,0.02,21.62,-1643.87,664.5,9735.07,1755696308.5354593,14:25:08
1079459.0,73.0,100.0,99.0,3.0,-6.27,4.94,5.64,-0.01,0.02,0.01,21.62,-1644.0,664.61,9735.19,1755696308.7234638,14:25:08
1079480.0,73.0,100.0,99.0,3.0,-6.28,4.92,5.76,-0.02,0.05,0.01,21.6,-1644.13,664.71,9735.31,1755696308.8369288,14:25:08
1079502.0,73.0,100.0,99.0,3.0,-6.24,4.92,5.81,-0.03,0.04,-0.0,21.61,-1644.27,664.82,9735.44,1755696308.916006,14:25:08
1079523.0,73.0,100.0,99.0,3.0,-6.21,4.94,5.81,-0.03,0.04,-0.0,21.6,-1644.4,664.92,9735.56,1755696309.0227141,14:25:09
1079546.0,73.0,100.0,99.0,3.0,-6.19,4.98,5.86,-0.03,0.04,0.0,21.61,-1644.54,665.04,9735.69,1755696309.086199,14:25:09
1079567.0,73.0,100.0,99.0,3.0,-6.16,5.05,5.86,-0.03,0.01,0.0,21.62,-1644.67,665.14,9735.82,1755696309.2261534,14:25:09
1079588.0,73.0,100.0,99.0,3.0,-6.2,5.04,5.82,-0.03,0.01,0.01,21.62,-1644.8,665.25,9735.94,1755696309.2905838,14:25:09
1079609.0,73.0,100.0,99.0,3.0,-6.22,5.0,5.78,-0.03,0.01,0.01,21.6,-1644.93,665.35,9736.06,1755696309.3630154,14:25:09
1079630.0,73.0,100.0,99.0,3.0,-6.21,4.99,5.76,-0.03,0.0,0.01,21.6,-1645.06,665.46,9736.18,1755696309.4284854,14:25:09
1079651.0,73.0,100.0,99.0,3.0,-6.2,4.98,5.79,-0.03,-0.01,0.0,21.6,-1645.19,665.56,9736.3,1755696309.4841528,14:25:09
1079673.0,73.0,100.0,99.0,3.0,-6.22,4.98,5.79,-0.02,-0.0,0.0,21.62,-1645.33,665.67,9736.43,1755696309.5503066,14:25:09
1079694.0,73.0,100.0,99.0,3.0,-6.22,4.94,5.78,-0.02,-0.0,0.0,21.61,-1645.46,665.78,9736.55,1755696309.6319225,14:25:09
1079715.0,73.0,100.0,99.0,3.0,-6.21,4.96,5.75,-0.03,-0.01,-0.0,21.61,-1645.59,665.88,9736.67,1755696309.752997,14:25:09
1079736.0,73.0,100.0,99.0,3.0,-6.22,4.96,5.73,-0.02,0.01,-0.0,21.62,-1645.72,665.98,9736.79,1755696309.946102,14:25:09
1079798.0,73.0,100.0,99.0,3.0,-6.23,4.96,5.8,-0.02,-0.0,-0.0,21.62,-1646.11,666.29,9737.15,1755696310.0629666,14:25:10
1079819.0,73.0,100.0,99.0,3.0,-6.19,4.99,5.75,-0.02,0.01,-0.0,21.59,-1646.24,666.4,9737.27,1755696310.1467571,14:25:10
1079840.0,73.0,100.0,99.0,3.0,-6.21,4.99,5.75,-0.01,0.01,-0.0,21.62,-1646.37,666.5,9737.4,1755696310.2532914,14:25:10
1079861.0,73.0,100.0,99.0,3.0,-6.24,4.97,5.8,-0.01,0.01,0.0,21.61,-1646.5,666.61,9737.52,1755696310.3333945,14:25:10
1079883.0,73.0,100.0,99.0,3.0,-6.22,4.93,5.82,-0.01,-0.0,0.01,21.59,-1646.64,666.72,9737.64,1755696310.45514,14:25:10
1079904.0,73.0,100.0,99.0,3.0,-6.21,4.94,5.83,0.0,0.0,-0.0,21.61,-1646.77,666.82,9737.77,1755696310.5192819,14:25:10
1079926.0,72.0,100.0,99.0,3.0,-6.22,5.01,5.85,-0.0,-0.01,-0.0,21.62,-1646.9,666.93,9737.9,1755696310.5872767,14:25:10
1079947.0,72.0,100.0,99.0,3.0,-6.21,5.02,5.79,-0.0,-0.03,0.0,21.59,-1647.04,667.03,9738.02,1755696310.7620032,14:25:10
1079968.0,72.0,100.0,99.0,3.0,-6.2,5.04,5.75,-0.01,-0.03,-0.0,21.6,-1647.17,667.14,9738.14,1755696310.8189788,14:25:10
1079989.0,72.0,100.0,99.0,3.0,-6.19,5.02,5.74,-0.01,-0.02,-0.0,21.6,-1647.3,667.24,9738.26,1755696310.9735405,14:25:10
1080010.0,72.0,100.0,99.0,3.0,-6.19,5.02,5.71,-0.01,-0.01,-0.0,21.6,-1647.43,667.35,9738.38,1755696311.0654333,14:25:11
1080031.0,72.0,100.0,99.0,3.0,-6.24,4.99,5.71,-0.02,0.01,0.0,21.62,-1647.56,667.46,9738.5,1755696311.1204705,14:25:11
1080052.0,72.0,100.0,99.0,3.0,-6.24,4.98,5.75,-0.03,0.02,0.0,21.62,-1647.69,667.56,9738.62,1755696311.2754533,14:25:11
1080074.0,72.0,100.0,99.0,3.0,-6.2,4.97,5.77,-0.03,0.01,-0.0,21.61,-1647.82,667.67,9738.75,1755696311.3423338,14:25:11
1080095.0,72.0,100.0,99.0,3.0,-6.18,4.99,5.76,-0.03,0.02,-0.0,21.61,-1647.95,667.77,9738.87,1755696311.4851298,14:25:11
1080116.0,72.0,100.0,99.0,3.0,-6.21,4.99,5.82,-0.04,0.03,0.0,21.6,-1648.08,667.88,9738.99,1755696311.5797782,14:25:11
1080138.0,72.0,100.0,99.0,3.0,-6.22,4.99,5.83,-0.03,0.01,0.0,21.59,-1648.22,667.99,9739.12,1755696311.6337574,14:25:11
1080159.0,72.0,100.0,99.0,3.0,-6.21,5.0,5.78,-0.04,0.01,0.0,21.6,-1648.35,668.09,9739.24,1755696311.8036432,14:25:11
1080181.0,72.0,100.0,99.0,3.0,-6.2,4.99,5.76,-0.03,0.01,-0.0,21.62,-1648.49,668.2,9739.37,1755696312.2978618,14:25:12
1080202.0,72.0,100.0,99.0,3.0,-6.2,4.98,5.74,-0.03,0.01,-0.0,21.63,-1648.62,668.31,9739.49,1755696312.298047,14:25:12
1080223.0,72.0,100.0,99.0,3.0,-6.22,4.98,5.78,-0.03,0.02,0.0,21.62,-1648.75,668.41,9739.61,1755696312.3598204,14:25:12
1080245.0,72.0,100.0,99.0,3.0,-6.23,4.97,5.81,-0.03,0.0,-0.0,21.61,-1648.89,668.52,9739.74,1755696312.3599854,14:25:12
1080266.0,72.0,100.0,99.0,3.0,-6.2,4.98,5.79,-0.03,0.0,-0.0,21.63,-1649.02,668.63,9739.86,1755696312.4345703,14:25:12
1080287.0,72.0,100.0,99.0,3.0,-6.21,4.97,5.76,-0.04,0.01,-0.0,21.63,-1649.15,668.73,9739.98,1755696312.5017738,14:25:12
1080308.0,72.0,100.0,99.0,3.0,-6.22,5.0,5.8,-0.03,0.01,-0.0,21.62,-1649.28,668.84,9740.1,1755696312.8070767,14:25:12
1080329.0,72.0,100.0,99.0,3.0,-6.23,4.99,5.78,-0.03,0.01,-0.0,21.61,-1649.41,668.94,9740.22,1755696312.872063,14:25:12
1080350.0,72.0,100.0,99.0,3.0,-6.21,4.96,5.78,-0.03,0.0,-0.0,21.61,-1649.54,669.05,9740.34,1755696313.2041337,14:25:13
1080371.0,72.0,100.0,99.0,3.0,-6.23,4.98,5.77,-0.04,0.01,-0.01,21.61,-1649.67,669.15,9740.46,1755696313.204252,14:25:13
1080393.0,72.0,100.0,99.0,3.0,-6.23,4.94,5.78,-0.04,0.01,-0.0,21.62,-1649.81,669.26,9740.59,1755696313.316885,14:25:13
1080414.0,72.0,100.0,99.0,3.0,-6.22,4.95,5.8,-0.04,0.01,-0.0,21.63,-1649.94,669.36,9740.71,1755696313.4237218,14:25:13
1080435.0,72.0,100.0,99.0,3.0,-6.22,4.96,5.8,-0.04,0.01,-0.01,21.62,-1650.07,669.47,9740.84,1755696313.4786825,14:25:13
1080457.0,72.0,100.0,99.0,3.0,-6.23,4.97,5.79,-0.05,0.02,-0.0,21.62,-1650.2,669.58,9740.96,1755696313.6284235,14:25:13
1080479.0,72.0,100.0,99.0,3.0,-6.26,4.95,5.81,-0.04,0.02,0.0,21.61,-1650.34,669.69,9741.09,1755696313.7334814,14:25:13
1080500.0,72.0,100.0,99.0,3.0,-6.26,4.94,5.86,-0.04,0.01,-0.0,21.62,-1650.47,669.79,9741.21,1755696313.7974803,14:25:13
1080522.0,72.0,100.0,99.0,3.0,-6.23,4.95,5.82,-0.04,0.01,-0.0,21.61,-1650.61,669.9,9741.34,1755696313.9497657,14:25:13
1080543.0,72.0,100.0,99.0,3.0,-6.22,4.96,5.81,-0.04,0.02,0.0,21.62,-1650.74,670.0,9741.46,1755696314.043442,14:25:14
1080565.0,72.0,100.0,99.0,3.0,-6.22,4.94,5.79,-0.03,0.01,-0.0,21.61,-1650.88,670.11,9741.59,1755696314.1432602,14:25:14
1080586.0,72.0,100.0,99.0,3.0,-6.22,4.95,5.78,-0.03,0.01,-0.0,21.62,-1651.01,670.21,9741.71,1755696314.2007656,14:25:14
1080608.0,72.0,100.0,99.0,3.0,-6.22,4.91,5.77,-0.04,0.01,-0.0,21.63,-1651.15,670.32,9741.84,1755696314.3536077,14:25:14
1080629.0,72.0,100.0,99.0,3.0,-6.26,4.92,5.79,-0.03,0.01,0.0,21.62,-1651.28,670.43,9741.96,1755696314.4052658,14:25:14
1080650.0,72.0,100.0,99.0,3.0,-6.27,4.92,5.8,-0.04,0.01,-0.0,21.62,-1651.41,670.53,9742.08,1755696314.5494838,14:25:14
1080671.0,72.0,100.0,99.0,3.0,-6.25,4.93,5.81,-0.04,0.02,-0.0,21.61,-1651.54,670.63,9742.21,1755696314.6251388,14:25:14
1080694.0,72.0,100.0,99.0,3.0,-6.26,4.93,5.78,-0.04,0.02,-0.0,21.62,-1651.68,670.75,9742.34,1755696314.7691174,14:25:14
1080715.0,72.0,100.0,99.0,3.0,-6.23,4.92,5.81,-0.04,0.03,0.0,21.62,-1651.81,670.85,9742.46,1755696314.8327549,14:25:14
1080736.0,72.0,100.0,99.0,3.0,-6.24,4.93,5.83,-0.03,0.02,0.0,21.62,-1651.95,670.95,9742.58,1755696314.9031446,14:25:14
1080758.0,72.0,100.0,99.0,3.0,-6.28,4.95,5.85,-0.03,0.02,0.0,21.62,-1652.08,671.06,9742.71,1755696314.968976,14:25:14
1080779.0,72.0,100.0,99.0,3.0,-6.34,5.02,5.9,-0.04,0.03,-0.01,21.61,-1652.22,671.17,9742.84,1755696315.0307431,14:25:15
1080800.0,72.0,100.0,99.0,3.0,-6.41,5.12,5.95,-0.04,0.05,-0.02,21.62,-1652.35,671.27,9742.96,1755696315.2056231,14:25:15
1080822.0,72.0,100.0,99.0,3.0,-6.47,5.26,5.96,-0.05,0.1,-0.06,21.63,-1652.49,671.39,9743.09,1755696315.263138,14:25:15
1080843.0,72.0,100.0,99.0,3.0,-6.61,5.34,6.01,-0.12,0.24,-0.13,21.62,-1652.63,671.5,9743.22,1755696315.375273,14:25:15
1080865.0,72.0,100.0,99.0,3.0,-6.76,5.22,6.07,-0.15,0.41,-0.18,21.61,-1652.78,671.61,9743.35,1755696315.468881,14:25:15
1080886.0,72.0,100.0,99.0,3.0,-7.24,5.48,6.3,-0.32,0.58,-0.3,21.61,-1652.92,671.73,9743.48,1755696315.5286207,14:25:15
1080908.0,72.0,100.0,99.0,3.0,-7.7,5.49,6.43,-0.42,0.8,-0.41,21.59,-1653.09,671.85,9743.62,1755696315.6771722,14:25:15
1080929.0,72.0,100.0,99.0,3.0,-7.98,5.45,6.02,-0.59,1.08,-0.67,21.62,-1653.25,671.96,9743.75,1755696315.7881696,14:25:15
1080950.0,72.0,100.0,99.0,3.0,-8.36,5.07,5.34,-0.75,1.27,-0.73,21.6,-1653.42,672.07,9743.87,1755696315.8455257,14:25:15
1080972.0,72.0,100.0,99.0,3.0,-8.74,4.73,5.23,-0.84,1.23,-0.69,21.61,-1653.61,672.18,9743.99,1755696316.0493476,14:25:16
1080993.0,72.0,100.0,99.0,3.0,-8.01,4.19,5.06,-0.89,1.12,-0.8,21.62,-1653.79,672.27,9744.09,1755696316.1480622,14:25:16
1081014.0,72.0,100.0,99.0,3.0,-8.72,3.68,4.34,-1.24,0.93,-0.72,21.63,-1653.96,672.36,9744.19,1755696316.2085578,14:25:16
1081035.0,72.0,100.0,99.0,3.0,-8.93,3.14,4.0,-0.97,0.86,-0.59,21.63,-1654.15,672.43,9744.28,1755696316.2954621,14:25:16
1081056.0,72.0,100.0,99.0,3.0,-8.56,2.67,4.26,-0.4,0.71,-0.77,21.62,-1654.33,672.49,9744.37,1755696316.4150183,14:25:16
1081077.0,72.0,100.0,99.0,3.0,-8.44,2.47,4.63,0.14,0.36,-1.2,21.62,-1654.51,672.54,9744.46,1755696316.4733224,14:25:16
1081100.0,72.0,100.0,99.0,3.0,-7.96,2.51,4.78,0.09,-0.03,-1.34,21.61,-1654.7,672.6,9744.57,1755696316.5409403,14:25:16
1081121.0,72.0,100.0,99.0,3.0,-7.74,2.62,4.54,-0.3,-0.14,-1.17,21.59,-1654.86,672.65,9744.67,1755696316.622722,14:25:16
1081142.0,72.0,100.0,99.0,3.0,-7.13,2.24,4.09,-0.74,0.01,-0.88,21.61,-1655.02,672.71,9744.76,1755696316.8821242,14:25:16
1081164.0,72.0,100.0,99.0,3.0,-7.11,1.59,3.61,-0.91,0.06,-0.46,21.61,-1655.18,672.75,9744.84,1755696316.9622643,14:25:16
1081185.0,72.0,100.0,99.0,3.0,-7.01,1.25,3.54,-0.48,0.09,-0.15,21.62,-1655.32,672.78,9744.92,1755696317.111116,14:25:17
1081207.0,72.0,100.0,99.0,3.0,-7.5,1.03,3.75,0.17,0.27,-0.16,21.61,-1655.48,672.8,9745.0,1755696317.169446,14:25:17
1081229.0,72.0,100.0,99.0,3.0,-7.6,1.0,4.14,0.72,0.67,-0.51,21.61,-1655.65,672.82,9745.08,1755696317.320693,14:25:17
1081251.0,69.0,100.0,99.0,3.0,-7.47,1.21,4.22,1.16,1.0,-0.87,21.6,-1655.82,672.85,9745.18,1755696317.450618,14:25:17
1081272.0,69.0,100.0,99.0,3.0,-7.18,1.64,4.41,1.69,1.07,-0.98,21.62,-1655.97,672.88,9745.27,1755696317.5154936,14:25:17
1081293.0,69.0,100.0,99.0,3.0,-7.41,1.98,4.42,1.83,0.83,-0.9,21.62,-1656.12,672.92,9745.36,1755696317.6190283,14:25:17
1081314.0,69.0,100.0,99.0,3.0,-7.86,2.53,4.75,1.44,0.51,-0.54,21.62,-1656.28,672.96,9745.46,1755696317.6824145,14:25:17
1081335.0,69.0,100.0,99.0,3.0,-7.08,2.45,4.7,0.68,0.05,-0.28,21.61,-1656.44,673.02,9745.56,1755696317.8365405,14:25:17
1081356.0,69.0,100.0,99.0,3.0,-7.46,2.81,4.48,0.2,-0.39,-0.03,21.61,-1656.59,673.07,9745.65,1755696317.89665,14:25:17
1081377.0,69.0,100.0,99.0,3.0,-7.69,2.92,4.08,-0.16,-0.29,0.09,21.62,-1656.75,673.13,9745.74,1755696318.0527494,14:25:18
1081398.0,69.0,100.0,99.0,3.0,-7.95,2.8,3.8,-0.09,0.05,0.22,21.63,-1656.92,673.19,9745.83,1755696318.1074073,14:25:18
1081420.0,69.0,100.0,99.0,3.0,-7.79,2.88,4.07,0.37,0.57,0.16,21.62,-1657.09,673.25,9745.91,1755696318.2557445,14:25:18
1081441.0,69.0,100.0,99.0,3.0,-7.89,3.03,4.18,0.49,1.08,-0.05,21.61,-1657.25,673.32,9746.0,1755696318.4908533,14:25:18
1081462.0,69.0,100.0,99.0,3.0,-8.81,3.13,4.03,0.24,1.32,0.02,21.63,-1657.43,673.38,9746.09,1755696318.7495763,14:25:18
1081484.0,69.0,100.0,99.0,3.0,-9.85,2.86,3.8,-0.15,1.11,0.34,21.62,-1657.63,673.45,9746.17,1755696318.8804307,14:25:18
1081505.0,69.0,100.0,99.0,3.0,-9.33,2.4,3.86,-0.51,0.71,0.43,21.6,-1657.84,673.5,9746.25,1755696319.064712,14:25:19
1081527.0,69.0,100.0,99.0,3.0,-8.95,2.21,3.46,-0.9,0.31,0.28,21.62,-1658.04,673.55,9746.33,1755696319.1256943,14:25:19
1081548.0,69.0,100.0,99.0,3.0,-9.2,2.33,2.92,-1.11,0.12,0.3,21.62,-1658.23,673.6,9746.4,1755696319.2788608,14:25:19
1081570.0,69.0,100.0,99.0,3.0,-9.04,2.21,2.69,-1.05,0.05,0.45,21.61,-1658.43,673.65,9746.46,1755696319.4757915,14:25:19
1081591.0,69.0,100.0,99.0,3.0,-8.75,1.95,2.67,-0.81,0.08,0.47,21.6,-1658.61,673.69,9746.52,1755696319.5531766,14:25:19
1081612.0,69.0,100.0,99.0,3.0,-8.93,1.9,2.61,-0.31,0.12,0.31,21.61,-1658.8,673.74,9746.57,1755696319.6166584,14:25:19
1081634.0,69.0,100.0,99.0,3.0,-8.88,2.16,2.41,-0.02,0.11,0.0,21.63,-1659.0,673.78,9746.63,1755696319.6780589,14:25:19
1081655.0,69.0,100.0,99.0,3.0,-8.99,2.34,2.59,0.2,0.19,-0.14,21.62,-1659.18,673.83,9746.68,1755696319.744865,14:25:19
1081677.0,69.0,100.0,99.0,3.0,-8.7,2.59,2.93,0.38,0.58,-0.22,21.62,-1659.38,673.88,9746.74,1755696319.8745236,14:25:19
1081698.0,69.0,100.0,99.0,3.0,-8.76,2.56,2.95,0.5,0.76,-0.2,21.61,-1659.56,673.94,9746.8,1755696319.9743333,14:25:19
1081720.0,69.0,100.0,99.0,3.0,-8.98,2.64,3.08,0.55,0.66,-0.11,21.61,-1659.76,673.99,9746.87,1755696320.0780056,14:25:20
1081741.0,69.0,100.0,99.0,3.0,-9.1,2.6,3.1,0.26,0.36,-0.05,21.63,-1659.95,674.05,9746.93,1755696320.2205505,14:25:20
1081762.0,69.0,100.0,99.0,3.0,-8.69,2.65,3.2,-0.17,0.05,0.0,21.62,-1660.13,674.1,9747.0,1755696320.286727,14:25:20
1081785.0,69.0,100.0,99.0,3.0,-8.86,2.74,3.08,-0.54,0.04,-0.01,21.62,-1660.34,674.16,9747.07,1755696320.3926167,14:25:20
1081807.0,69.0,100.0,99.0,3.0,-8.95,2.67,2.7,-0.41,0.02,0.1,21.63,-1660.53,674.22,9747.14,1755696320.496219,14:25:20
1081828.0,69.0,100.0,99.0,3.0,-8.99,2.47,2.68,-0.35,-0.07,0.21,21.63,-1660.72,674.28,9747.19,1755696320.5614498,14:25:20
1081849.0,69.0,100.0,99.0,3.0,-8.94,2.37,2.54,-0.29,-0.16,0.15,21.62,-1660.91,674.33,9747.25,1755696320.7102447,14:25:20
1081871.0,69.0,100.0,99.0,3.0,-8.95,2.4,2.53,-0.19,-0.28,0.08,21.63,-1661.1,674.38,9747.3,1755696320.7767594,14:25:20
1081892.0,69.0,100.0,99.0,3.0,-9.04,2.48,2.49,-0.13,-0.21,0.01,21.61,-1661.29,674.43,9747.36,1755696320.8408933,14:25:20
1081915.0,69.0,100.0,99.0,3.0,-8.65,2.4,2.56,-0.13,0.0,0.06,21.62,-1661.5,674.49,9747.42,1755696320.900028,14:25:20
1081936.0,69.0,100.0,99.0,3.0,-8.86,2.29,2.41,-0.11,0.08,0.08,21.6,-1661.68,674.54,9747.47,1755696320.9648468,14:25:20
1081958.0,69.0,100.0,99.0,3.0,-9.05,2.28,2.45,-0.02,0.06,0.09,21.61,-1661.88,674.59,9747.52,1755696321.028518,14:25:21
1081979.0,69.0,100.0,99.0,3.0,-9.26,2.3,2.49,-0.03,0.03,0.02,21.64,-1662.07,674.64,9747.57,1755696321.680161,14:25:21
1082000.0,69.0,100.0,99.0,3.0,-9.11,2.3,2.64,0.02,0.08,-0.03,21.64,-1662.26,674.68,9747.63,1755696321.6803617,14:25:21
1082022.0,69.0,100.0,99.0,3.0,-8.95,2.3,2.61,-0.04,0.05,-0.08,21.62,-1662.46,674.74,9747.68,1755696322.010283,14:25:22
1082043.0,69.0,100.0,99.0,3.0,-8.82,2.37,2.6,-0.06,0.0,-0.03,21.61,-1662.65,674.78,9747.74,1755696322.0105834,14:25:22
1082064.0,69.0,100.0,99.0,3.0,-8.9,2.32,2.6,-0.11,-0.02,0.04,21.63,-1662.83,674.83,9747.79,1755696322.071603,14:25:22
1082085.0,69.0,100.0,99.0,3.0,-8.94,2.18,2.75,-0.05,0.04,0.05,21.62,-1663.02,674.88,9747.85,1755696322.0717988,14:25:22
1082106.0,69.0,100.0,99.0,3.0,-8.91,2.2,2.86,0.08,0.12,-0.07,21.61,-1663.21,674.93,9747.91,1755696322.237694,14:25:22
1082128.0,69.0,100.0,99.0,3.0,-8.86,2.33,2.82,0.09,0.07,-0.16,21.62,-1663.4,674.98,9747.97,1755696322.3056152,14:25:22
1082149.0,69.0,100.0,99.0,3.0,-8.96,2.49,2.83,-0.03,0.02,-0.11,21.61,-1663.59,675.03,9748.03,1755696322.4399965,14:25:22
1082170.0,69.0,100.0,99.0,3.0,-9.13,2.49,2.76,-0.17,0.0,0.02,21.63,-1663.78,675.08,9748.09,1755696322.536432,14:25:22
1082191.0,69.0,100.0,99.0,3.0,-9.16,2.38,2.76,-0.2,-0.02,0.07,21.62,-1663.97,675.13,9748.15,1755696322.6417105,14:25:22
1082213.0,69.0,100.0,99.0,3.0,-9.02,2.22,2.67,-0.23,-0.04,-0.02,21.63,-1664.17,675.18,9748.21,1755696322.7404985,14:25:22
1082235.0,69.0,100.0,99.0,3.0,-8.94,2.3,2.64,-0.16,-0.07,-0.09,21.61,-1664.37,675.23,9748.26,1755696322.8535094,14:25:22
1082256.0,69.0,100.0,99.0,3.0,-8.86,2.39,2.53,-0.18,-0.05,-0.07,21.63,-1664.56,675.28,9748.32,1755696322.9460044,14:25:22
1082278.0,69.0,100.0,99.0,3.0,-8.74,2.3,2.44,-0.14,-0.04,-0.0,21.63,-1664.75,675.33,9748.37,1755696323.0260136,14:25:23
1082299.0,69.0,100.0,99.0,3.0,-8.68,2.26,2.52,-0.06,-0.03,0.01,21.61,-1664.93,675.38,9748.43,1755696323.0904977,14:25:23
1082320.0,69.0,100.0,99.0,3.0,-8.89,2.26,2.59,0.02,0.03,-0.03,21.63,-1665.12,675.43,9748.48,1755696323.2627418,14:25:23
1082341.0,69.0,100.0,99.0,3.0,-8.79,2.24,2.57,0.03,0.07,-0.04,21.63,-1665.3,675.47,9748.53,1755696323.3239977,14:25:23
1082362.0,69.0,100.0,99.0,3.0,-8.94,2.25,2.38,-0.0,-0.07,0.01,21.65,-1665.49,675.52,9748.59,1755696323.475968,14:25:23
1082383.0,69.0,100.0,99.0,3.0,-9.01,2.25,2.6,0.08,-0.09,0.07,21.62,-1665.68,675.57,9748.64,1755696323.558887,14:25:23
1082404.0,69.0,100.0,99.0,3.0,-8.83,2.17,2.68,0.03,0.09,0.05,21.62,-1665.87,675.62,9748.69,1755696323.6224153,14:25:23
1082426.0,69.0,100.0,99.0,3.0,-8.94,2.2,2.74,0.11,0.16,-0.03,21.6,-1666.06,675.66,9748.75,1755696323.802962,14:25:23
1082448.0,69.0,100.0,99.0,3.0,-9.0,2.33,2.71,0.11,0.14,-0.05,21.65,-1666.26,675.71,9748.81,1755696323.8701491,14:25:23
1082469.0,69.0,100.0,99.0,3.0,-8.98,2.37,2.67,0.03,0.0,-0.01,21.63,-1666.45,675.76,9748.87,1755696323.9457116,14:25:23
1082491.0,69.0,100.0,99.0,3.0,-9.11,2.43,2.78,0.09,-0.11,-0.0,21.61,-1666.65,675.82,9748.93,1755696324.0089037,14:25:24
1082512.0,69.0,100.0,99.0,3.0,-9.24,2.41,2.65,-0.05,-0.14,-0.01,21.62,-1666.84,675.87,9748.99,1755696324.0727682,14:25:24
1082533.0,69.0,100.0,99.0,3.0,-9.39,2.37,2.59,-0.0,-0.26,0.02,21.62,-1667.04,675.92,9749.04,1755696324.1381152,14:25:24
1082554.0,69.0,100.0,99.0,3.0,-9.3,2.4,2.72,0.1,-0.27,-0.06,21.62,-1667.23,675.97,9749.1,1755696324.2773666,14:25:24
1082575.0,69.0,100.0,99.0,3.0,-8.87,2.33,2.72,0.07,-0.23,-0.14,21.62,-1667.42,676.02,9749.15,1755696324.3383448,14:25:24
1082596.0,69.0,100.0,99.0,3.0,-8.42,2.4,2.74,0.08,-0.2,-0.11,21.62,-1667.6,676.07,9749.21,1755696324.4838247,14:25:24
1082617.0,69.0,100.0,99.0,3.0,-8.63,2.5,2.74,0.09,-0.13,0.02,21.63,-1667.78,676.12,9749.27,1755696324.543644,14:25:24
1082638.0,69.0,100.0,99.0,3.0,-8.79,2.49,2.87,0.05,-0.0,0.07,21.62,-1667.97,676.17,9749.33,1755696324.6006336,14:25:24
1082660.0,69.0,100.0,99.0,3.0,-8.71,2.37,2.83,0.04,0.03,0.02,21.63,-1668.16,676.22,9749.39,1755696324.6963143,14:25:24
1082681.0,69.0,100.0,99.0,3.0,-8.67,2.47,2.97,0.2,-0.01,-0.05,21.62,-1668.34,676.27,9749.45,1755696324.7927527,14:25:24
1082702.0,69.0,100.0,99.0,3.0,-8.7,2.7,2.95,0.23,-0.03,-0.1,21.59,-1668.52,676.33,9749.51,1755696324.8928423,14:25:24
1082723.0,69.0,100.0,99.0,3.0,-8.77,2.92,3.0,0.21,-0.04,-0.02,21.63,-1668.71,676.39,9749.58,1755696324.9497402,14:25:24
1082745.0,69.0,100.0,99.0,3.0,-8.71,3.08,3.39,0.26,0.14,0.01,21.63,-1668.9,676.45,9749.65,1755696325.013167,14:25:25
1082766.0,69.0,100.0,99.0,3.0,-8.94,3.42,3.62,0.57,0.38,-0.15,21.62,-1669.08,676.52,9749.72,1755696325.077216,14:25:25
1082787.0,69.0,100.0,99.0,3.0,-9.4,3.76,3.7,0.85,0.48,-0.33,21.6,-1669.28,676.6,9749.8,1755696325.1467159,14:25:25
1082808.0,69.0,100.0,99.0,3.0,-9.17,3.99,3.83,0.73,0.51,-0.42,21.62,-1669.47,676.68,9749.87,1755696325.2137036,14:25:25
1082829.0,69.0,100.0,99.0,3.0,-8.71,3.95,3.84,0.26,0.32,-0.33,21.62,-1669.66,676.76,9749.96,1755696325.2761006,14:25:25
1082850.0,69.0,100.0,99.0,3.0,-8.29,4.0,3.92,-0.3,-0.1,-0.01,21.62,-1669.84,676.85,9750.04,1755696325.3383949,14:25:25
1082871.0,69.0,100.0,99.0,3.0,-8.23,4.08,3.78,-1.03,-0.42,0.37,21.61,-1670.01,676.93,9750.12,1755696325.4042149,14:25:25
1082892.0,69.0,100.0,99.0,3.0,-8.43,3.83,3.57,-1.33,-0.58,0.69,21.62,-1670.19,677.01,9750.19,1755696325.5087957,14:25:25
1082913.0,69.0,100.0,99.0,3.0,-8.74,3.64,3.6,-1.25,-0.65,0.81,21.63,-1670.37,677.09,9750.27,1755696325.6085885,14:25:25
1082934.0,69.0,100.0,99.0,3.0,-8.58,3.59,3.66,-1.28,-0.5,0.65,21.6,-1670.55,677.17,9750.35,1755696325.6755848,14:25:25
1082955.0,69.0,100.0,99.0,3.0,-8.51,3.54,3.4,-1.36,-0.4,0.5,21.61,-1670.73,677.24,9750.42,1755696325.7391882,14:25:25
1082976.0,69.0,100.0,99.0,3.0,-8.51,3.66,3.35,-1.27,-0.34,0.59,21.63,-1670.91,677.32,9750.49,1755696325.7965236,14:25:25
1082997.0,69.0,100.0,99.0,3.0,-8.49,3.65,3.33,-1.39,-0.21,0.74,21.63,-1671.09,677.39,9750.56,1755696325.859422,14:25:25
1083059.0,69.0,100.0,99.0,3.0,-8.0,3.18,3.18,-1.4,-0.56,0.98,21.63,-1671.6,677.6,9750.77,1755696326.0719097,14:25:26
1083080.0,69.0,100.0,99.0,3.0,-7.73,3.1,3.18,-1.12,-0.87,1.09,21.62,-1671.76,677.67,9750.83,1755696326.301187,14:25:26
1083102.0,69.0,100.0,99.0,3.0,-7.05,3.09,3.29,-0.84,-1.16,1.15,21.62,-1671.93,677.74,9750.9,1755696326.4324968,14:25:26
1083124.0,69.0,100.0,99.0,3.0,-6.02,3.2,3.41,-0.67,-1.4,1.19,21.62,-1672.07,677.81,9750.98,1755696326.4859738,14:25:26
1083145.0,69.0,100.0,99.0,3.0,-4.94,3.16,3.25,-0.84,-1.58,1.43,21.62,-1672.18,677.87,9751.05,1755696326.6406631,14:25:26
1083166.0,69.0,100.0,99.0,3.0,-4.21,3.39,3.21,-1.22,-1.6,1.73,21.62,-1672.28,677.94,9751.12,1755696326.744683,14:25:26
1083188.0,69.0,100.0,99.0,3.0,-3.7,3.31,2.98,-1.49,-1.42,1.88,21.64,-1672.37,678.02,9751.18,1755696326.8371892,14:25:26
1083209.0,69.0,100.0,99.0,3.0,-4.45,3.59,2.61,-1.35,-1.24,1.93,21.62,-1672.45,678.09,9751.24,1755696326.9382856,14:25:26
1083230.0,69.0,100.0,99.0,3.0,-6.71,4.67,3.32,-0.65,-0.86,1.67,21.62,-1672.57,678.17,9751.31,1755696327.0031905,14:25:27
1083251.0,69.0,100.0,99.0,3.0,-6.65,4.98,3.7,0.1,0.38,0.81,21.64,-1672.71,678.28,9751.38,1755696327.1587539,14:25:27
1083272.0,69.0,100.0,99.0,3.0,-6.43,9.42,7.93,0.31,1.14,0.47,21.62,-1672.85,678.43,9751.5,1755696327.2443945,14:25:27
1083293.0,69.0,100.0,99.0,3.0,-7.1,4.71,4.07,-0.97,0.36,1.36,21.62,-1672.99,678.58,9751.63,1755696327.3032184,14:25:27
1083314.0,69.0,100.0,99.0,3.0,-5.94,5.24,4.15,0.53,-0.1,2.07,21.63,-1673.13,678.68,9751.71,1755696327.4777954,14:25:27
1083335.0,69.0,100.0,99.0,3.0,-5.92,5.61,4.41,-0.31,0.88,1.9,21.62,-1673.25,678.79,9751.8,1755696327.5574522,14:25:27
1083357.0,69.0,100.0,99.0,3.0,-5.97,5.91,4.98,-0.73,1.25,1.7,21.62,-1673.38,678.92,9751.91,1755696327.6199589,14:25:27
1083378.0,69.0,100.0,99.0,3.0,-6.8,6.34,5.32,-0.21,0.72,1.67,21.62,-1673.52,679.05,9752.01,1755696327.6831007,14:25:27
1083399.0,69.0,100.0,99.0,3.0,-8.17,6.31,5.79,-0.23,0.57,1.88,21.63,-1673.67,679.18,9752.13,1755696327.7488034,14:25:27
1083421.0,69.0,100.0,99.0,3.0,-8.96,5.94,6.3,-0.14,0.58,1.83,21.62,-1673.86,679.32,9752.26,1755696327.8129947,14:25:27
1083442.0,69.0,100.0,99.0,3.0,-8.93,6.41,6.39,-0.16,0.89,1.52,21.62,-1674.05,679.45,9752.4,1755696327.871157,14:25:27
1083464.0,69.0,100.0,99.0,3.0,-8.54,6.32,6.56,-0.8,1.64,1.18,21.61,-1674.24,679.59,9752.54,1755696327.9605632,14:25:27
1083485.0,69.0,100.0,99.0,3.0,-9.05,5.77,6.68,-1.04,1.98,0.86,21.62,-1674.43,679.71,9752.68,1755696328.0254004,14:25:28
1083506.0,69.0,100.0,99.0,3.0,-9.61,4.98,6.69,-1.15,1.96,0.67,21.62,-1674.62,679.83,9752.82,1755696328.0907736,14:25:28
1083527.0,69.0,100.0,99.0,3.0,-9.83,4.57,6.59,-1.01,1.58,0.41,21.63,-1674.83,679.93,9752.96,1755696328.1491103,14:25:28
1083550.0,69.0,100.0,99.0,3.0,-9.48,4.48,6.31,-0.82,1.13,0.03,21.6,-1675.05,680.03,9753.11,1755696328.2829986,14:25:28
1083572.0,69.0,100.0,99.0,3.0,-9.25,4.32,6.26,-0.82,0.86,-0.24,21.62,-1675.25,680.13,9753.25,1755696328.3470414,14:25:28
1083593.0,69.0,100.0,99.0,3.0,-8.88,3.78,6.11,-0.8,0.72,-0.43,21.62,-1675.44,680.21,9753.38,1755696328.4083438,14:25:28
1083614.0,69.0,100.0,99.0,3.0,-8.59,3.28,5.76,-0.58,0.46,-0.52,21.6,-1675.63,680.29,9753.5,1755696328.4736435,14:25:28
1083635.0,69.0,100.0,99.0,3.0,-8.25,3.12,5.6,-0.47,0.39,-0.72,21.62,-1675.81,680.35,9753.62,1755696328.5847216,14:25:28
1083656.0,69.0,100.0,99.0,3.0,-8.25,2.93,5.67,-0.59,0.5,-1.05,21.62,-1675.98,680.42,9753.74,1755696328.6901157,14:25:28
1083677.0,69.0,100.0,99.0,3.0,-8.27,2.79,5.53,-0.54,0.42,-1.31,21.63,-1676.15,680.48,9753.86,1755696328.7417314,14:25:28
1083698.0,69.0,100.0,99.0,3.0,-8.33,2.83,5.52,-0.46,0.31,-1.38,21.61,-1676.33,680.54,9753.97,1755696328.9180284,14:25:28
1083719.0,69.0,100.0,99.0,3.0,-8.33,2.66,5.44,-0.36,0.18,-1.4,21.62,-1676.5,680.59,9754.09,1755696328.9890885,14:25:28
1083740.0,69.0,100.0,99.0,3.0,-8.28,2.7,5.36,-0.13,-0.03,-1.4,21.61,-1676.68,680.65,9754.2,1755696329.0846744,14:25:29
1083761.0,69.0,100.0,99.0,3.0,-8.13,2.78,5.11,-0.06,-0.12,-1.49,21.62,-1676.85,680.71,9754.31,1755696329.2023342,14:25:29
1083782.0,69.0,100.0,99.0,3.0,-8.09,2.77,4.91,-0.03,-0.18,-1.56,21.62,-1677.02,680.77,9754.42,1755696329.2579715,14:25:29
1083803.0,69.0,100.0,99.0,3.0,-8.19,2.73,4.82,0.1,-0.29,-1.59,21.61,-1677.19,680.82,9754.52,1755696329.440438,14:25:29
1083824.0,69.0,100.0,99.0,3.0,-8.48,2.72,4.71,0.27,-0.5,-1.58,21.61,-1677.36,680.88,9754.62,1755696329.6267817,14:25:29
1083845.0,69.0,100.0,99.0,3.0,-8.69,2.91,4.89,0.26,-0.6,-1.63,21.6,-1677.54,680.94,9754.72,1755696329.681424,14:25:29
1083867.0,69.0,100.0,99.0,3.0,-8.34,2.9,4.84,0.3,-0.67,-1.7,21.63,-1677.73,681.0,9754.83,1755696329.8072598,14:25:29
1083888.0,69.0,100.0,99.0,3.0,-8.13,2.92,4.62,0.32,-0.7,-1.67,21.59,-1677.9,681.07,9754.93,1755696329.907441,14:25:29
1083909.0,69.0,100.0,99.0,3.0,-8.17,2.73,4.36,0.28,-0.64,-1.55,21.59,-1678.08,681.12,9755.02,1755696329.9720027,14:25:29
1083930.0,69.0,100.0,99.0,3.0,-8.49,2.24,4.48,0.37,-0.65,-1.28,21.61,-1678.25,681.18,9755.11,1755696330.03621,14:25:30
1083952.0,69.0,100.0,99.0,3.0,-8.71,1.96,4.83,0.45,-0.78,-1.07,21.63,-1678.44,681.22,9755.22,1755696330.1219451,14:25:30
1083973.0,69.0,100.0,99.0,3.0,-8.87,1.52,5.19,0.47,-1.07,-0.88,21.6,-1678.62,681.26,9755.32,1755696330.2511013,14:25:30
1083994.0,69.0,100.0,99.0,3.0,-8.71,1.29,5.53,0.61,-1.38,-0.62,21.61,-1678.81,681.29,9755.43,1755696330.423671,14:25:30
1084016.0,69.0,100.0,99.0,3.0,-7.91,0.97,5.22,0.68,-1.43,-0.6,21.61,-1678.99,681.31,9755.55,1755696330.526249,14:25:30
1084037.0,69.0,100.0,99.0,3.0,-7.44,0.56,5.16,0.86,-1.22,-0.54,21.6,-1679.15,681.33,9755.66,1755696330.5797832,14:25:30
1084058.0,69.0,100.0,99.0,3.0,-6.56,0.62,5.37,0.76,-0.82,-0.72,21.6,-1679.3,681.34,9755.77,1755696330.636169,14:25:30
1084079.0,69.0,100.0,99.0,3.0,-6.08,0.2,5.16,0.48,-0.65,-0.82,21.6,-1679.43,681.35,9755.88,1755696330.7453237,14:25:30
1084100.0,69.0,100.0,99.0,3.0,-6.14,0.4,5.62,0.53,-0.62,-0.75,21.59,-1679.56,681.36,9756.0,1755696330.935845,14:25:30
1084121.0,69.0,100.0,99.0,3.0,-6.34,0.06,5.43,0.51,-0.9,-0.66,21.6,-1679.69,681.36,9756.11,1755696331.0406787,14:25:31
1084142.0,69.0,100.0,99.0,3.0,-5.65,0.56,5.66,0.8,-1.21,-0.49,21.6,-1679.82,681.37,9756.23,1755696331.1043706,14:25:31
1084164.0,69.0,100.0,99.0,3.0,-5.27,1.29,5.94,0.65,-0.97,-0.45,21.59,-1679.94,681.39,9756.36,1755696331.2446632,14:25:31
1084186.0,69.0,100.0,99.0,3.0,-5.41,1.71,5.87,0.47,-0.8,-0.23,21.57,-1680.06,681.42,9756.49,1755696331.3609183,14:25:31
1084207.0,69.0,100.0,99.0,3.0,-6.41,2.22,6.27,0.37,-0.76,-0.01,21.59,-1680.18,681.46,9756.61,1755696331.4450228,14:25:31
1084229.0,69.0,100.0,99.0,3.0,-6.67,2.21,6.56,0.37,-0.95,-0.04,21.6,-1680.32,681.51,9756.75,1755696331.500573,14:25:31
1084250.0,69.0,100.0,99.0,3.0,-5.77,2.58,6.58,0.59,-1.04,0.05,21.59,-1680.45,681.56,9756.89,1755696331.5970416,14:25:31
1084271.0,69.0,100.0,99.0,3.0,-5.3,2.83,6.63,0.4,-0.54,0.23,21.61,-1680.57,681.62,9757.03,1755696331.752684,14:25:31
1084293.0,69.0,100.0,99.0,3.0,-5.53,2.87,6.85,0.28,-0.09,0.35,21.6,-1680.69,681.68,9757.18,1755696331.8130639,14:25:31
1084314.0,69.0,100.0,99.0,3.0,-5.95,3.37,7.2,0.23,0.25,0.4,21.6,-1680.81,681.75,9757.33,1755696331.963446,14:25:31
1084335.0,69.0,100.0,99.0,3.0,-6.87,3.75,7.73,0.09,0.55,0.53,21.58,-1680.94,681.82,9757.48,1755696332.0342987,14:25:32
1084356.0,69.0,100.0,99.0,3.0,-7.48,4.08,8.5,0.13,0.5,0.58,21.59,-1681.1,681.9,9757.65,1755696332.170155,14:25:32
1084379.0,69.0,100.0,99.0,3.0,-7.3,4.12,8.25,0.25,0.28,0.51,21.59,-1681.27,682.0,9757.85,1755696332.2765493,14:25:32
1084400.0,69.0,100.0,99.0,3.0,-7.12,3.74,7.66,0.18,0.26,0.46,21.59,-1681.42,682.08,9758.01,1755696332.3399005,14:25:32
1084421.0,69.0,100.0,99.0,3.0,-6.6,3.34,7.36,0.14,0.21,0.35,21.58,-1681.56,682.16,9758.17,1755696332.3960562,14:25:32
1084443.0,69.0,100.0,99.0,3.0,-5.76,3.1,6.92,0.28,-0.02,0.28,21.59,-1681.7,682.23,9758.33,1755696332.4675794,14:25:32
1084464.0,69.0,100.0,99.0,3.0,-5.94,3.11,7.08,0.15,0.02,0.11,21.6,-1681.82,682.29,9758.48,1755696332.5779533,14:25:32
1084487.0,69.0,100.0,99.0,3.0,-6.31,3.14,7.19,0.23,-0.18,0.09,21.6,-1681.96,682.36,9758.64,1755696332.6433513,14:25:32
1084508.0,69.0,100.0,99.0,3.0,-6.27,3.52,6.87,0.35,-0.28,0.05,21.59,-1682.09,682.43,9758.79,1755696332.7774248,14:25:32
1084529.0,69.0,100.0,99.0,3.0,-6.22,3.72,6.78,0.23,-0.14,0.12,21.59,-1682.22,682.51,9758.93,1755696332.9202306,14:25:32
1084550.0,69.0,100.0,99.0,3.0,-6.1,3.85,7.03,0.26,-0.12,0.12,21.6,-1682.35,682.59,9759.08,1755696332.9850738,14:25:32
1084571.0,69.0,100.0,99.0,3.0,-6.07,3.81,7.13,0.24,-0.09,0.14,21.6,-1682.48,682.67,9759.22,1755696333.0922828,14:25:33
1084592.0,69.0,100.0,99.0,3.0,-6.22,3.7,7.56,0.17,-0.05,0.11,21.6,-1682.61,682.75,9759.38,1755696333.1780567,14:25:33
1084613.0,69.0,100.0,99.0,3.0,-6.16,3.51,7.75,0.17,-0.07,0.1,21.58,-1682.74,682.82,9759.54,1755696333.2380493,14:25:33
1084634.0,69.0,100.0,99.0,3.0,-6.26,3.28,7.69,0.12,-0.05,0.09,21.6,-1682.87,682.89,9759.7,1755696333.2990415,14:25:33
1084655.0,69.0,100.0,99.0,3.0,-6.05,3.16,7.74,0.13,-0.09,0.07,21.6,-1683.0,682.96,9759.86,1755696333.3649287,14:25:33
1084676.0,69.0,100.0,99.0,3.0,-5.83,2.93,7.54,0.15,-0.1,0.05,21.58,-1683.12,683.03,9760.02,1755696333.451568,14:25:33
1084697.0,69.0,100.0,99.0,3.0,-5.93,2.68,7.47,0.11,-0.11,0.07,21.61,-1683.25,683.09,9760.18,1755696333.5177083,14:25:33
1084718.0,69.0,100.0,99.0,3.0,-5.79,2.52,7.4,0.15,-0.2,0.05,21.59,-1683.37,683.14,9760.34,1755696333.579697,14:25:33
1084739.0,69.0,100.0,99.0,3.0,-5.7,2.65,7.43,0.09,-0.14,-0.04,21.6,-1683.49,683.19,9760.49,1755696333.7345886,14:25:33
1084760.0,69.0,100.0,99.0,3.0,-5.84,2.72,7.54,-0.03,-0.07,-0.02,21.59,-1683.61,683.25,9760.65,1755696333.7972293,14:25:33
1084782.0,69.0,100.0,99.0,3.0,-5.53,3.19,7.52,0.02,-0.15,0.02,21.6,-1683.74,683.32,9760.82,1755696333.9060206,14:25:33
1084804.0,69.0,100.0,99.0,3.0,-5.49,3.48,7.32,-0.1,-0.08,0.05,21.62,-1683.86,683.39,9760.98,1755696333.9716125,14:25:33
1084825.0,69.0,100.0,99.0,3.0,-5.02,3.68,7.12,-0.11,-0.01,0.13,21.59,-1683.97,683.46,9761.13,1755696334.2275567,14:25:34
1084848.0,69.0,100.0,99.0,3.0,-5.45,4.2,7.12,-0.3,0.33,0.1,21.59,-1684.09,683.55,9761.29,1755696334.3782332,14:25:34
1084869.0,69.0,100.0,99.0,3.0,-5.84,4.08,7.42,-0.34,0.48,0.16,21.6,-1684.21,683.64,9761.45,1755696334.59459,14:25:34
1084890.0,69.0,100.0,99.0,3.0,-5.74,4.03,7.12,-0.07,0.4,0.13,21.6,-1684.33,683.73,9761.6,1755696334.764018,14:25:34
1084911.0,69.0,100.0,99.0,3.0,-5.85,4.05,6.56,-0.16,0.64,0.11,21.6,-1684.45,683.81,9761.74,1755696334.822113,14:25:34
1084932.0,69.0,100.0,99.0,3.0,-6.31,3.66,6.79,-0.24,0.72,0.16,21.62,-1684.58,683.89,9761.88,1755696334.9268792,14:25:34
1084953.0,69.0,100.0,99.0,3.0,-6.24,3.51,6.83,-0.09,0.47,0.08,21.61,-1684.71,683.97,9762.03,1755696334.9825604,14:25:34
1084974.0,69.0,100.0,99.0,3.0,-5.84,3.45,6.83,-0.0,0.33,0.05,21.62,-1684.84,684.04,9762.17,1755696335.164288,14:25:35
1084995.0,69.0,100.0,99.0,3.0,-5.9,3.48,6.64,-0.06,0.45,0.06,21.62,-1684.96,684.11,9762.31,1755696335.229148,14:25:35
1085016.0,69.0,100.0,99.0,3.0,-6.12,3.33,6.74,-0.14,0.64,0.1,21.6,-1685.09,684.19,9762.45,1755696335.303096,14:25:35
1085037.0,69.0,100.0,99.0,3.0,-6.2,3.32,7.06,-0.16,0.8,0.14,21.61,-1685.22,684.26,9762.6,1755696337.8704593,14:25:37
1085058.0,69.0,100.0,99.0,3.0,-6.7,3.2,7.02,-0.23,0.88,0.1,21.59,-1685.35,684.32,9762.74,1755696337.8710601,14:25:37
1085079.0,69.0,100.0,99.0,3.0,-7.2,3.03,6.79,-0.18,0.74,0.12,21.63,-1685.5,684.39,9762.89,1755696337.8714035,14:25:37
1085101.0,69.0,100.0,99.0,3.0,-7.26,2.87,6.62,-0.18,0.58,0.08,21.6,-1685.66,684.45,9763.04,1755696337.9128256,14:25:37
1085122.0,69.0,100.0,99.0,3.0,-7.04,2.83,6.56,-0.1,0.41,0.03,21.59,-1685.81,684.51,9763.17,1755696338.0055852,14:25:38
1085143.0,69.0,100.0,99.0,3.0,-6.99,2.96,6.59,-0.11,0.24,-0.0,21.61,-1685.96,684.57,9763.31,1755696338.0612078,14:25:38
1085164.0,69.0,100.0,99.0,3.0,-7.02,2.85,6.29,-0.09,0.13,-0.02,21.6,-1686.1,684.64,9763.45,1755696338.2233508,14:25:38
1085185.0,69.0,100.0,99.0,3.0,-6.89,2.9,6.28,-0.06,0.02,-0.03,21.61,-1686.25,684.7,9763.58,1755696338.30532,14:25:38
1085207.0,69.0,100.0,99.0,3.0,-6.44,3.03,6.26,0.02,-0.01,-0.02,21.64,-1686.39,684.76,9763.72,1755696338.3641686,14:25:38
1085228.0,69.0,100.0,99.0,3.0,-6.32,3.09,5.89,-0.05,0.13,-0.03,21.6,-1686.53,684.83,9763.84,1755696338.4267664,14:25:38
1085250.0,69.0,100.0,99.0,3.0,-6.95,3.11,5.83,-0.15,0.23,-0.03,21.61,-1686.67,684.89,9763.97,1755696338.5089233,14:25:38
1085271.0,69.0,100.0,99.0,3.0,-7.17,2.87,5.91,-0.0,0.05,-0.01,21.61,-1686.82,684.96,9764.1,1755696338.633335,14:25:38
1085293.0,69.0,100.0,99.0,3.0,-7.0,3.15,5.84,0.16,-0.11,-0.1,21.61,-1686.98,685.02,9764.23,1755696338.6949043,14:25:38
1085315.0,69.0,100.0,99.0,3.0,-6.87,3.25,5.98,0.09,-0.02,-0.1,21.61,-1687.13,685.09,9764.36,1755696338.757475,14:25:38
1085337.0,69.0,100.0,99.0,3.0,-6.63,3.31,6.58,0.03,-0.01,-0.09,21.61,-1687.28,685.16,9764.49,1755696338.8176937,14:25:38
1085359.0,69.0,100.0,99.0,3.0,-6.78,3.24,6.7,-0.04,-0.05,-0.03,21.62,-1687.43,685.24,9764.64,1755696338.9312036,14:25:38
1085380.0,69.0,100.0,99.0,3.0,-6.53,3.28,6.51,0.01,-0.05,0.06,21.61,-1687.57,685.31,9764.78,1755696338.9978783,14:25:38
1085402.0,69.0,100.0,99.0,3.0,-6.15,3.28,6.41,-0.12,0.21,0.12,21.62,-1687.71,685.38,9764.92,1755696339.1243894,14:25:39
1085423.0,69.0,100.0,99.0,3.0,-6.52,3.21,6.51,-0.24,0.4,0.12,21.61,-1687.84,685.45,9765.06,1755696339.228625,14:25:39
1085444.0,69.0,100.0,99.0,3.0,-6.82,3.08,6.56,-0.22,0.42,0.12,21.61,-1687.98,685.51,9765.19,1755696339.2909818,14:25:39
1085465.0,69.0,100.0,99.0,3.0,-6.83,3.07,6.56,-0.17,0.4,0.12,21.62,-1688.12,685.58,9765.33,1755696339.4644597,14:25:39
1085486.0,69.0,100.0,99.0,3.0,-7.06,3.08,6.34,-0.17,0.39,0.12,21.62,-1688.27,685.64,9765.47,1755696339.6804397,14:25:39
1085508.0,70.0,100.0,99.0,3.0,-7.03,3.03,6.32,-0.08,0.32,0.13,21.61,-1688.42,685.71,9765.61,1755696340.331647,14:25:40
1085529.0,70.0,100.0,99.0,3.0,-7.06,2.89,6.18,-0.14,0.34,0.09,21.64,-1688.57,685.77,9765.74,1755696340.3317297,14:25:40
1085550.0,70.0,100.0,99.0,3.0,-7.17,2.77,6.1,-0.09,0.24,0.06,21.61,-1688.72,685.83,9765.87,1755696340.3433313,14:25:40
1085572.0,70.0,100.0,99.0,3.0,-7.11,2.56,5.88,-0.0,0.07,0.03,21.62,-1688.88,685.89,9766.0,1755696340.3434868,14:25:40
1085593.0,70.0,100.0,99.0,3.0,-7.16,2.47,5.75,-0.04,0.08,0.01,21.62,-1689.03,685.94,9766.12,1755696340.3557022,14:25:40
1085614.0,70.0,100.0,99.0,3.0,-7.11,2.47,5.8,0.04,0.15,0.03,21.63,-1689.18,685.99,9766.24,1755696340.454136,14:25:40
1085635.0,70.0,100.0,99.0,3.0,-7.35,2.55,5.76,0.06,0.16,0.03,21.63,-1689.33,686.05,9766.36,1755696340.507686,14:25:40
1085656.0,70.0,100.0,99.0,3.0,-7.02,2.67,5.77,0.05,0.16,0.03,21.62,-1689.48,686.1,9766.48,1755696340.8191078,14:25:40
1085677.0,70.0,100.0,99.0,3.0,-6.67,2.72,5.66,-0.01,0.14,0.0,21.62,-1689.62,686.16,9766.6,1755696340.8192976,14:25:40
1085698.0,70.0,100.0,99.0,3.0,-6.56,3.0,5.65,0.04,0.14,0.06,21.62,-1689.76,686.22,9766.72,1755696340.989048,14:25:40
1085720.0,70.0,100.0,99.0,3.0,-6.79,3.05,5.61,0.14,0.13,0.17,21.63,-1689.91,686.28,9766.85,1755696341.0758483,14:25:41
1085741.0,70.0,100.0,99.0,3.0,-6.99,3.21,5.73,0.26,0.08,0.22,21.63,-1690.05,686.35,9766.97,1755696341.141853,14:25:41
1085762.0,70.0,100.0,99.0,3.0,-7.32,3.33,5.79,0.22,0.08,0.18,21.63,-1690.21,686.42,9767.09,1755696341.4889696,14:25:41
1085784.0,70.0,100.0,99.0,3.0,-7.59,3.52,5.98,0.17,0.13,0.12,21.64,-1690.37,686.49,9767.22,1755696341.4891865,14:25:41
1085805.0,70.0,100.0,99.0,3.0,-7.77,3.57,6.21,0.12,0.14,0.08,21.6,-1690.53,686.57,9767.35,1755696341.5621252,14:25:41
1085827.0,70.0,100.0,99.0,3.0,-7.62,3.58,6.21,0.12,0.13,-0.0,21.62,-1690.7,686.65,9767.48,1755696341.616906,14:25:41
1085848.0,70.0,100.0,99.0,3.0,-7.7,3.64,6.21,0.07,0.16,-0.0,21.62,-1690.86,686.72,9767.61,1755696341.682573,14:25:41
1085869.0,70.0,100.0,99.0,3.0,-7.61,3.59,6.1,0.05,0.2,0.0,21.64,-1691.02,686.8,9767.74,1755696341.8058996,14:25:41
1085890.0,70.0,100.0,99.0,3.0,-7.92,3.52,5.94,0.04,0.16,0.08,21.63,-1691.18,686.87,9767.87,1755696341.8585215,14:25:41
1085911.0,70.0,100.0,99.0,3.0,-8.0,3.32,5.87,0.11,0.05,0.09,21.63,-1691.35,686.94,9767.99,1755696342.0040693,14:25:42
1085933.0,70.0,100.0,99.0,3.0,-7.72,3.28,5.63,0.14,-0.04,0.0,21.63,-1691.52,687.02,9768.12,1755696342.055652,14:25:42
1085954.0,70.0,100.0,99.0,3.0,-7.33,3.31,5.52,0.15,-0.03,-0.06,21.64,-1691.68,687.09,9768.24,1755696342.1416624,14:25:42
1085975.0,70.0,100.0,99.0,3.0,-7.09,3.37,5.6,0.14,-0.04,-0.05,21.62,-1691.83,687.16,9768.35,1755696342.309271,14:25:42
1085997.0,70.0,100.0,99.0,3.0,-7.1,3.48,5.57,0.17,-0.13,-0.01,21.63,-1691.99,687.23,9768.48,1755696342.3762045,14:25:42
1086018.0,70.0,100.0,99.0,3.0,-7.08,3.51,5.5,0.16,-0.09,0.03,21.62,-1692.14,687.31,9768.59,1755696342.5081108,14:25:42
1086041.0,70.0,100.0,99.0,3.0,-7.11,3.56,5.55,0.1,0.06,0.03,21.64,-1692.3,687.39,9768.72,1755696342.7187726,14:25:42
1086062.0,70.0,100.0,99.0,3.0,-7.42,3.54,5.59,0.09,0.1,0.08,21.62,-1692.45,687.46,9768.84,1755696342.7785463,14:25:42
1086083.0,70.0,100.0,99.0,3.0,-7.38,3.51,5.57,0.11,0.03,0.07,21.62,-1692.61,687.54,9768.95,1755696343.0388422,14:25:43
1086105.0,70.0,100.0,99.0,3.0,-7.13,3.57,5.43,0.11,-0.03,-0.01,21.63,-1692.77,687.61,9769.07,1755696343.120837,14:25:43
1086127.0,70.0,100.0,99.0,3.0,-7.13,3.72,5.22,0.08,0.03,-0.04,21.63,-1692.93,687.69,9769.19,1755696343.2283106,14:25:43
1086148.0,70.0,100.0,99.0,3.0,-7.27,3.72,5.22,0.11,0.04,0.05,21.64,-1693.08,687.77,9769.3,1755696343.509367,14:25:43
1086169.0,70.0,100.0,99.0,3.0,-7.31,3.72,5.41,0.13,-0.0,0.04,21.63,-1693.23,687.85,9769.41,1755696343.679214,14:25:43
1086190.0,70.0,100.0,99.0,3.0,-7.13,3.77,5.42,0.18,-0.11,-0.04,21.63,-1693.38,687.93,9769.53,1755696343.8442228,14:25:43
1086212.0,70.0,100.0,99.0,3.0,-7.13,3.88,5.32,0.09,-0.03,-0.04,21.64,-1693.54,688.01,9769.64,1755696343.9060628,14:25:43
1086234.0,70.0,100.0,99.0,3.0,-7.29,3.79,5.33,0.12,0.01,0.03,21.64,-1693.7,688.1,9769.76,1755696343.976511,14:25:43
1086296.0,70.0,100.0,99.0,3.0,-7.29,3.73,5.32,0.06,-0.05,-0.03,21.61,-1694.16,688.32,9770.09,1755696344.2510111,14:25:44
1086317.0,70.0,100.0,99.0,3.0,-7.17,3.78,5.32,0.05,-0.06,-0.05,21.63,-1694.31,688.4,9770.2,1755696344.3453662,14:25:44
1086338.0,70.0,100.0,99.0,3.0,-6.98,3.8,5.23,0.0,-0.0,-0.05,21.63,-1694.46,688.48,9770.31,1755696344.4050317,14:25:44
1086359.0,70.0,100.0,99.0,3.0,-6.88,3.81,5.2,-0.04,0.09,-0.05,21.63,-1694.6,688.56,9770.42,1755696344.5786135,14:25:44
1086380.0,70.0,100.0,99.0,3.0,-7.1,3.87,5.29,-0.11,0.17,-0.05,21.63,-1694.75,688.64,9770.53,1755696344.6709447,14:25:44
1086401.0,70.0,100.0,99.0,3.0,-7.11,3.81,5.38,-0.12,0.15,-0.05,21.64,-1694.9,688.72,9770.64,1755696344.7335653,14:25:44
1086424.0,70.0,100.0,99.0,3.0,-7.27,3.84,5.43,-0.08,0.11,-0.05,21.64,-1695.06,688.81,9770.77,1755696344.7930322,14:25:44
1086445.0,70.0,100.0,99.0,3.0,-7.36,3.73,5.48,-0.1,0.11,-0.04,21.64,-1695.22,688.89,9770.88,1755696344.9638894,14:25:44
1086466.0,70.0,100.0,99.0,3.0,-7.47,3.59,5.55,-0.05,0.08,-0.01,21.62,-1695.37,688.97,9771.0,1755696345.061638,14:25:45
1086488.0,70.0,100.0,99.0,3.0,-7.52,3.51,5.6,-0.02,0.02,-0.03,21.62,-1695.54,689.05,9771.12,1755696345.1168356,14:25:45
1086509.0,70.0,100.0,99.0,3.0,-7.48,3.6,5.62,-0.01,-0.0,-0.04,21.63,-1695.69,689.12,9771.24,1755696345.4371498,14:25:45
1086530.0,70.0,100.0,99.0,3.0,-7.43,3.6,5.58,-0.01,0.01,-0.03,21.63,-1695.85,689.2,9771.36,1755696345.609095,14:25:45
1086552.0,70.0,100.0,99.0,3.0,-7.35,3.64,5.61,-0.01,0.0,-0.03,21.63,-1696.01,689.28,9771.48,1755696345.667971,14:25:45
1086573.0,70.0,100.0,99.0,3.0,-7.46,3.68,5.48,-0.0,-0.02,-0.01,21.64,-1696.17,689.35,9771.59,1755696345.7552266,14:25:45
1086594.0,70.0,100.0,99.0,3.0,-7.39,3.66,5.37,-0.0,-0.03,-0.02,21.63,-1696.33,689.43,9771.71,1755696345.8169992,14:25:45
1086616.0,70.0,100.0,99.0,3.0,-7.29,3.64,5.29,0.01,-0.05,-0.03,21.63,-1696.49,689.51,9771.83,1755696345.8820329,14:25:45
1086638.0,70.0,100.0,99.0,3.0,-7.2,3.63,5.34,0.01,-0.03,-0.02,21.64,-1696.65,689.59,9771.94,1755696345.9328375,14:25:45
1086659.0,70.0,100.0,99.0,3.0,-7.3,3.62,5.38,0.02,-0.05,-0.0,21.62,-1696.8,689.67,9772.06,1755696346.015548,14:25:46
1086680.0,70.0,100.0,99.0,3.0,-7.35,3.63,5.4,-0.02,-0.01,0.01,21.63,-1696.95,689.74,9772.17,1755696346.1932497,14:25:46
1086701.0,70.0,100.0,99.0,3.0,-7.44,3.65,5.37,-0.04,0.03,0.01,21.63,-1697.11,689.82,9772.28,1755696346.2910824,14:25:46
1086722.0,70.0,100.0,99.0,3.0,-7.36,3.66,5.28,-0.05,0.07,0.0,21.64,-1697.26,689.9,9772.39,1755696346.3921828,14:25:46
1086744.0,70.0,100.0,99.0,3.0,-7.35,3.67,5.3,-0.11,0.11,0.01,21.64,-1697.42,689.98,9772.51,1755696346.456129,14:25:46
1086765.0,70.0,100.0,99.0,3.0,-7.3,3.6,5.26,-0.07,0.08,0.01,21.62,-1697.58,690.05,9772.62,1755696346.6098566,14:25:46
1086786.0,70.0,100.0,99.0,3.0,-7.34,3.59,5.29,-0.08,0.07,0.02,21.64,-1697.73,690.13,9772.73,1755696346.6711948,14:25:46
1086807.0,70.0,100.0,99.0,3.0,-7.36,3.56,5.42,-0.02,0.02,0.03,21.63,-1697.89,690.2,9772.84,1755696346.7393694,14:25:46
1086829.0,70.0,100.0,99.0,3.0,-7.33,3.63,5.54,-0.03,-0.0,0.02,21.63,-1698.05,690.28,9772.97,1755696346.7983785,14:25:46
1086851.0,70.0,100.0,99.0,3.0,-7.28,3.67,5.58,-0.04,0.02,0.02,21.64,-1698.21,690.36,9773.09,1755696346.9084837,14:25:46
1086872.0,70.0,100.0,99.0,3.0,-7.2,3.71,5.58,-0.04,0.04,0.02,21.64,-1698.36,690.44,9773.21,1755696347.017754,14:25:47
1086894.0,70.0,100.0,99.0,3.0,-7.27,3.69,5.41,-0.06,0.05,0.02,21.63,-1698.52,690.52,9773.33,1755696347.1238434,14:25:47
1086915.0,70.0,100.0,99.0,3.0,-7.32,3.65,5.35,-0.08,0.07,0.03,21.63,-1698.67,690.6,9773.44,1755696347.2152202,14:25:47
1086936.0,70.0,100.0,99.0,3.0,-7.35,3.67,5.32,-0.07,0.05,0.01,21.63,-1698.83,690.68,9773.55,1755696347.316271,14:25:47
1086957.0,70.0,100.0,99.0,3.0,-7.3,3.63,5.21,-0.08,0.02,-0.02,21.64,-1698.98,690.75,9773.66,1755696347.4171574,14:25:47
1086978.0,70.0,100.0,99.0,3.0,-7.32,3.68,5.1,-0.11,0.01,0.02,21.64,-1699.13,690.83,9773.77,1755696347.4743907,14:25:47
1086999.0,70.0,100.0,99.0,3.0,-7.34,3.53,5.09,-0.12,0.01,0.06,21.63,-1699.29,690.9,9773.88,1755696347.623042,14:25:47
1087020.0,70.0,100.0,99.0,3.0,-7.4,3.45,5.12,-0.13,-0.0,0.03,21.64,-1699.44,690.98,9773.99,1755696347.7609792,14:25:47
1087043.0,70.0,100.0,99.0,3.0,-7.36,3.51,5.15,-0.06,0.06,-0.03,21.63,-1699.61,691.06,9774.1,1755696347.9556324,14:25:47
1087064.0,70.0,100.0,99.0,3.0,-7.47,3.82,5.38,-0.06,0.21,-0.06,21.62,-1699.77,691.14,9774.21,1755696348.0357523,14:25:48
1087085.0,70.0,100.0,99.0,3.0,-7.6,3.75,5.7,-0.12,0.19,0.01,21.62,-1699.93,691.21,9774.33,1755696348.1341841,14:25:48
1087106.0,70.0,100.0,99.0,3.0,-7.6,4.01,6.03,-0.15,0.15,0.01,21.65,-1700.09,691.3,9774.45,1755696348.2383943,14:25:48
1087128.0,70.0,100.0,99.0,3.0,-7.54,4.04,6.14,-0.16,0.12,-0.01,21.62,-1700.25,691.38,9774.59,1755696348.2962918,14:25:48
1087150.0,70.0,100.0,99.0,3.0,-7.36,4.14,6.27,-0.18,0.08,-0.01,21.62,-1700.42,691.47,9774.72,1755696348.4455087,14:25:48
1087171.0,70.0,100.0,99.0,3.0,-7.34,4.22,6.3,-0.2,0.02,-0.03,21.64,-1700.57,691.56,9774.86,1755696348.5013828,14:25:48
1087193.0,70.0,100.0,99.0,3.0,-7.35,4.31,6.13,-0.21,-0.04,-0.04,21.61,-1700.73,691.66,9774.99,1755696348.6581788,14:25:48
1087214.0,70.0,100.0,99.0,3.0,-6.51,4.8,6.25,-0.26,-0.08,0.0,21.64,-1700.88,691.75,9775.12,1755696348.7497687,14:25:48
1087236.0,70.0,100.0,99.0,3.0,-6.6,4.84,5.85,-0.52,0.13,-0.09,21.62,-1701.02,691.86,9775.25,1755696348.9771683,14:25:48
1087258.0,70.0,100.0,99.0,3.0,-7.34,5.0,5.8,-0.56,0.24,0.05,21.64,-1701.18,691.97,9775.38,1755696349.0379114,14:25:49
