arduino_ms,PPG_HR,PPG_O2,PPG_Conf,PPG_Status,MPU_AccelX,MPU_AccelY,MPU_AccelZ,MPU_GyroX,MPU_GyroY,MPU_GyroZ,MPU_Temp,MPU_VelX,MPU_VelY,MPU_VelZ,py_timestamp,real_time
1065400,75,100,99,3,-6.32,4.86,5.82,-0.03,0.02,0.01,21.57,-1555.72,595.91,9653.67,1755696206,14:23:25
1065422,75,100,99,3,-6.31,4.84,5.83,-0.04,0,0,21.56,-1555.86,596.02,9653.8,1755696206,14:23:25
1065443,75,100,99,3,-6.25,4.83,5.75,-0.04,0,0,21.57,-1555.99,596.12,9653.92,1755696206,14:23:25
1065464,75,100,99,3,-6.24,4.87,5.78,-0.04,0.02,0,21.58,-1556.12,596.22,9654.04,1755696206,14:23:25
1065485,76,100,98,3,-6.31,4.85,5.83,-0.04,0.04,0.01,21.57,-1556.26,596.33,9654.16,1755696206,14:23:25
1065506,76,100,98,3,-6.34,4.85,5.87,-0.03,0.01,0,21.55,-1556.39,596.43,9654.29,1755696206,14:23:25
1065528,76,100,98,3,-6.28,4.88,5.84,-0.03,0,0,21.56,-1556.53,596.53,9654.41,1755696206,14:23:25
1065550,76,100,98,3,-6.28,4.87,5.82,-0.04,0.03,0,21.56,-1556.67,596.64,9654.54,1755696206,14:23:26
1065571,76,100,98,3,-6.27,4.86,5.84,-0.04,0.03,0.01,21.57,-1556.8,596.74,9654.66,1755696206,14:23:26
1065593,76,100,98,3,-6.28,4.86,5.83,-0.03,0,0,21.57,-1556.94,596.85,9654.79,1755696206,14:23:26
1065614,76,100,98,3,-6.27,4.86,5.81,-0.03,-0.01,0,21.55,-1557.07,596.95,9654.91,1755696206,14:23:26
1065635,76,100,98,3,-6.27,4.85,5.8,-0.03,0,0,21.56,-1557.2,597.05,9655.04,1755696206,14:23:26
1065657,76,100,98,3,-6.31,4.83,5.83,-0.02,0.01,0,21.55,-1557.34,597.16,9655.16,1755696207,14:23:26
1065678,76,100,98,3,-6.34,4.84,5.8,-0.02,0,0,21.56,-1557.47,597.26,9655.29,1755696207,14:23:26
1065700,76,100,98,3,-6.3,4.83,5.83,-0.02,-0.01,0,21.55,-1557.61,597.37,9655.41,1755696207,14:23:26
1065721,76,100,98,3,-6.31,4.82,5.81,-0.02,0,0,21.55,-1557.74,597.47,9655.54,1755696207,14:23:26
1065742,76,100,98,3,-6.33,4.85,5.81,-0.02,0.01,0,21.56,-1557.87,597.57,9655.66,1755696207,14:23:27
1065764,76,100,98,3,-6.33,4.86,5.86,-0.02,0.01,0,21.55,-1558.01,597.68,9655.79,1755696207,14:23:27
1065785,76,100,98,3,-6.32,4.89,5.84,-0.02,0.01,0,21.57,-1558.15,597.78,9655.91,1755696207,14:23:27
1065806,76,100,98,3,-6.3,4.92,5.85,-0.02,0.01,0,21.57,-1558.28,597.88,9656.03,1755696207,14:23:27
1065828,76,100,98,3,-6.28,4.89,5.86,-0.02,0.01,0,21.57,-1558.42,597.99,9656.16,1755696207,14:23:27
1065849,76,100,98,3,-6.27,4.89,5.82,-0.02,0,0.01,21.55,-1558.55,598.09,9656.28,1755696208,14:23:27
1065871,76,100,98,3,-6.29,4.86,5.83,-0.01,0,0,21.55,-1558.69,598.2,9656.41,1755696208,14:23:27
1065892,76,100,98,3,-6.29,4.87,5.84,0,0,0,21.55,-1558.82,598.3,9656.54,1755696208,14:23:27
1065913,76,100,98,3,-6.27,4.85,5.85,-0.01,-0.02,0,21.55,-1558.95,598.41,9656.66,1755696208,14:23:27
1065935,76,100,98,3,-6.31,4.83,5.77,-0.02,-0.02,0,21.56,-1559.09,598.51,9656.79,1755696208,14:23:27
1065956,76,100,98,3,-6.3,4.84,5.77,-0.01,-0.01,0,21.55,-1559.22,598.61,9656.91,1755696208,14:23:27
1065977,76,100,98,3,-6.32,4.86,5.8,0,0.01,-0.01,21.57,-1559.35,598.72,9657.03,1755696208,14:23:28
1065998,76,100,98,3,-6.29,4.86,5.81,-0.01,0,0,21.56,-1559.49,598.82,9657.15,1755696208,14:23:28
1066019,76,100,98,3,-6.28,4.85,5.76,-0.01,0,-0.01,21.56,-1559.62,598.92,9657.27,1755696208,14:23:28
1066041,76,100,98,3,-6.29,4.86,5.82,-0.01,0.01,-0.01,21.54,-1559.76,599.03,9657.4,1755696208,14:23:28
1066063,76,100,98,3,-6.27,4.88,5.8,-0.02,0.01,0,21.55,-1559.89,599.13,9657.53,1755696209,14:23:28
1066084,76,100,98,3,-6.28,4.84,5.77,-0.02,0,0,21.55,-1560.03,599.24,9657.65,1755696209,14:23:28
1066106,76,100,98,3,-6.28,4.86,5.8,-0.02,0.01,-0.01,21.56,-1560.16,599.34,9657.77,1755696209,14:23:28
1066128,76,100,98,3,-6.31,4.85,5.86,-0.01,0.01,-0.01,21.53,-1560.3,599.45,9657.9,1755696209,14:23:28
1066149,76,100,98,3,-6.3,4.88,5.87,-0.02,0,-0.01,21.56,-1560.44,599.55,9658.03,1755696209,14:23:28
1066171,76,100,98,3,-6.29,4.89,5.83,-0.03,-0.01,-0.01,21.54,-1560.57,599.66,9658.15,1755696209,14:23:29
1066192,76,100,98,3,-6.27,4.87,5.79,-0.02,0.02,-0.01,21.55,-1560.71,599.76,9658.28,1755696209,14:23:29
1066213,76,100,98,3,-6.29,4.86,5.84,-0.02,0.01,0,21.55,-1560.84,599.86,9658.4,1755696209,14:23:29
1066234,76,100,98,3,-6.29,4.85,5.81,-0.03,-0.01,0,21.57,-1560.97,599.96,9658.52,1755696209,14:23:29
1066256,76,100,98,3,-6.28,4.81,5.78,-0.02,0,-0.01,21.56,-1561.11,600.07,9658.65,1755696209,14:23:29
1066277,76,100,98,3,-6.31,4.85,5.82,-0.02,0.01,-0.01,21.55,-1561.24,600.17,9658.77,1755696210,14:23:29
1066299,76,100,98,3,-6.34,4.85,5.84,-0.03,0,0,21.56,-1561.38,600.28,9658.9,1755696210,14:23:29
1066320,76,100,98,3,-6.31,4.85,5.83,-0.03,0,0,21.56,-1561.51,600.38,9659.02,1755696210,14:23:29
1066341,76,100,98,3,-6.28,4.85,5.78,-0.03,0.02,0,21.55,-1561.64,600.48,9659.14,1755696210,14:23:29
1066362,77,100,99,3,-6.3,4.83,5.8,-0.03,0.03,0,21.56,-1561.78,600.58,9659.26,1755696210,14:23:30
1066383,77,100,99,3,-6.31,4.83,5.82,-0.03,0.02,0,21.56,-1561.91,600.69,9659.39,1755696210,14:23:30
1066404,77,100,99,3,-6.3,4.83,5.82,-0.03,0.01,0,21.55,-1562.04,600.79,9659.51,1755696210,14:23:30
1066425,77,100,99,3,-6.33,4.84,5.82,-0.03,0.01,0,21.53,-1562.17,600.89,9659.63,1755696210,14:23:30
1066446,77,100,99,3,-6.34,4.83,5.83,-0.02,0.02,0,21.55,-1562.31,600.99,9659.75,1755696210,14:23:30
1066467,77,100,99,3,-6.32,4.86,5.8,-0.02,0.02,0,21.54,-1562.44,601.09,9659.87,1755696210,14:23:30
1066488,77,100,99,3,-6.31,4.82,5.79,-0.02,0.02,0,21.56,-1562.57,601.19,9660,1755696211,14:23:30
1066509,77,100,99,3,-6.29,4.82,5.79,-0.03,0.01,0,21.56,-1562.7,601.29,9660.12,1755696211,14:23:30
1066530,77,100,99,3,-6.32,4.81,5.84,-0.02,0.01,0,21.55,-1562.84,601.4,9660.24,1755696211,14:23:30
1066552,77,100,99,3,-6.32,4.84,5.84,-0.02,0,0,21.57,-1562.98,601.5,9660.37,1755696211,14:23:30
1066574,77,100,99,3,-6.34,4.86,5.84,-0.02,0,0,21.55,-1563.11,601.61,9660.5,1755696211,14:23:30
1066595,77,100,99,3,-6.33,4.85,5.81,-0.02,0.01,0,21.54,-1563.25,601.71,9660.62,1755696211,14:23:30
1066616,77,100,99,3,-6.32,4.84,5.79,-0.02,0,0,21.56,-1563.38,601.81,9660.74,1755696211,14:23:31
1066638,77,100,99,3,-6.33,4.84,5.79,-0.02,0,0,21.55,-1563.52,601.92,9660.87,1755696211,14:23:31
1066659,77,100,99,3,-6.34,4.85,5.83,-0.02,0,0,21.55,-1563.65,602.02,9660.99,1755696211,14:23:31
1066680,77,100,99,3,-6.31,4.81,5.84,-0.02,0,0.01,21.55,-1563.79,602.12,9661.11,1755696211,14:23:31
1066701,77,100,99,3,-6.31,4.81,5.8,-0.02,0,0.01,21.55,-1563.92,602.22,9661.24,1755696212,14:23:31
1066722,77,100,99,3,-6.32,4.82,5.79,-0.02,0.01,0.01,21.55,-1564.05,602.32,9661.36,1755696212,14:23:31
1066743,77,100,99,3,-6.31,4.84,5.82,-0.02,0.01,0.01,21.55,-1564.18,602.43,9661.48,1755696212,14:23:31
1066765,0,0,0,0,-6.3,4.83,5.78,-0.03,0.01,0.01,21.56,-1564.32,602.53,9661.61,1755696212,14:23:31
1066806,77,100,99,3,-6.33,4.85,5.83,-0.01,0.02,0,21.54,-1564.58,602.73,9661.85,1755696212,14:23:31
1066828,77,100,99,3,-6.32,4.87,5.85,-0.02,0.01,0.01,21.56,-1564.72,602.84,9661.98,1755696212,14:23:31
1066849,0,100,99,3,-6.33,4.84,5.85,-0.04,-0.01,0.01,21.55,-1564.85,602.94,9662.1,1755696212,14:23:32
1066870,0,100,99,3,-6.28,4.82,5.79,-0.03,0.01,0.01,21.57,-1564.98,603.04,9662.22,1755696212,14:23:32
1066891,0,100,99,3,-6.3,4.81,5.81,-0.03,0.02,0.01,21.57,-1565.12,603.14,9662.34,1755696212,14:23:32
1066912,77,100,99,3,-6.3,4.8,5.79,-0.03,0,0.01,21.55,-1565.25,603.24,9662.46,1755696212,14:23:32
1066933,77,100,99,3,-6.28,4.82,5.77,-0.02,0,0.01,21.57,-1565.38,603.34,9662.59,1755696212,14:23:32
1066955,77,100,99,3,-6.32,4.84,5.76,-0.02,0.01,0.01,21.54,-1565.52,603.45,9662.71,1755696213,14:23:32
1066977,77,100,99,3,-6.36,4.84,5.83,-0.02,0.01,0.01,21.57,-1565.66,603.56,9662.84,1755696213,14:23:32
1066998,77,100,99,3,-6.31,4.83,5.82,-0.03,0,0.01,21.56,-1565.79,603.66,9662.96,1755696213,14:23:32
1067019,77,100,99,3,-6.3,4.85,5.78,-0.02,0.01,0.01,21.55,-1565.92,603.76,9663.08,1755696213,14:23:32
1067040,77,100,99,3,-6.3,4.87,5.84,-0.02,0.03,0.01,21.55,-1566.06,603.86,9663.21,1755696213,14:23:32
1067061,77,100,99,3,-6.3,4.85,5.81,-0.03,0.01,0.01,21.56,-1566.19,603.96,9663.33,1755696213,14:23:33
1067083,77,100,99,3,-6.26,4.84,5.8,-0.03,-0.01,0.01,21.57,-1566.33,604.07,9663.46,1755696213,14:23:33
1067104,77,100,99,3,-6.29,4.86,5.77,-0.01,0.01,0,21.57,-1566.46,604.17,9663.58,1755696213,14:23:33
1067125,77,100,99,3,-6.34,4.85,5.82,-0.02,0.01,0.01,21.57,-1566.59,604.27,9663.7,1755696213,14:23:33
1067146,77,100,99,3,-6.32,4.8,5.86,-0.02,-0.01,0.01,21.56,-1566.72,604.38,9663.82,1755696213,14:23:33
1067168,77,100,99,3,-6.31,4.84,5.8,-0.01,-0.01,0.01,21.54,-1566.86,604.48,9663.95,1755696213,14:23:33
1067190,77,100,99,3,-6.27,4.87,5.77,-0.01,0.01,0.01,21.57,-1567,604.59,9664.08,1755696214,14:23:33
1067211,77,100,99,3,-6.31,4.85,5.79,-0.01,0.01,0.01,21.56,-1567.13,604.69,9664.2,1755696214,14:23:33
1067233,77,100,99,3,-6.31,4.85,5.82,-0.01,-0.01,0.01,21.56,-1567.27,604.8,9664.33,1755696214,14:23:33
1067254,77,100,99,3,-6.26,4.89,5.82,-0.01,-0.01,0.01,21.56,-1567.41,604.9,9664.45,1755696214,14:23:33
1067276,77,100,99,3,-6.24,4.89,5.79,-0.02,0,0.01,21.55,-1567.54,605.01,9664.58,1755696214,14:23:33
1067297,77,100,99,3,-6.32,4.85,5.8,-0.02,0,0.01,21.57,-1567.67,605.11,9664.7,1755696214,14:23:34
1067318,77,100,99,3,-6.29,4.88,5.76,-0.02,0,0.01,21.58,-1567.81,605.21,9664.82,1755696214,14:23:34
1067340,77,100,99,3,-6.31,4.87,5.76,-0.03,0,0.01,21.56,-1567.95,605.32,9664.95,1755696214,14:23:34
1067361,77,100,99,3,-6.29,4.84,5.77,-0.03,0.02,0.01,21.57,-1568.08,605.42,9665.07,1755696214,14:23:34
1067382,77,100,99,3,-6.31,4.87,5.77,-0.02,0.02,0,21.57,-1568.21,605.52,9665.19,1755696215,14:23:34
1067403,77,100,99,3,-6.28,4.87,5.81,-0.03,0.01,0.01,21.58,-1568.34,605.62,9665.31,1755696215,14:23:34
1067424,77,100,99,3,-6.31,4.87,5.79,-0.03,0.02,0.01,21.55,-1568.47,605.73,9665.43,1755696215,14:23:34
1067445,77,100,99,3,-6.28,4.89,5.83,-0.03,0.02,0,21.56,-1568.61,605.83,9665.56,1755696215,14:23:34
1067467,77,100,99,3,-6.27,4.89,5.82,-0.04,0.01,0,21.56,-1568.74,605.94,9665.68,1755696215,14:23:34
1067490,77,100,99,3,-6.3,4.9,5.79,-0.04,0.01,0.01,21.55,-1568.89,606.05,9665.82,1755696215,14:23:34
1067512,77,100,99,3,-6.28,4.88,5.82,-0.04,0.01,0.01,21.57,-1569.03,606.16,9665.95,1755696215,14:23:35
1067533,77,100,99,3,-6.29,4.85,5.8,-0.04,0.01,0.01,21.56,-1569.16,606.26,9666.07,1755696215,14:23:35
1067555,77,100,99,3,-6.31,4.83,5.79,-0.03,0.01,0.01,21.55,-1569.3,606.37,9666.2,1755696215,14:23:35
1067576,77,100,99,3,-6.32,4.84,5.84,-0.02,0.01,0,21.55,-1569.43,606.47,9666.32,1755696215,14:23:35
1067597,77,100,99,3,-6.28,4.89,5.85,-0.03,0,0.01,21.57,-1569.56,606.57,9666.44,1755696215,14:23:35
1067618,77,100,99,3,-6.28,4.87,5.77,-0.04,0,0.01,21.55,-1569.69,606.67,9666.56,1755696216,14:23:35
1067639,77,100,99,3,-6.27,4.86,5.77,-0.03,0.01,0.01,21.56,-1569.83,606.77,9666.68,1755696216,14:23:35
1067660,77,100,99,3,-6.28,4.86,5.84,-0.02,0.01,0,21.56,-1569.96,606.88,9666.81,1755696216,14:23:35
1067682,77,100,99,3,-6.3,4.87,5.83,-0.03,0,0.01,21.56,-1570.1,606.98,9666.93,1755696216,14:23:35
1067704,77,100,99,3,-6.29,4.83,5.78,-0.04,0,0.01,21.55,-1570.23,607.09,9667.06,1755696216,14:23:35
1067725,77,100,99,3,-6.27,4.83,5.78,-0.03,0.02,0,21.54,-1570.37,607.19,9667.18,1755696216,14:23:35
1067747,77,100,99,3,-6.26,4.87,5.82,-0.03,0.01,0.01,21.55,-1570.5,607.3,9667.31,1755696216,14:23:36
1067768,77,100,99,3,-6.27,4.85,5.8,-0.04,0.01,0.01,21.55,-1570.64,607.4,9667.43,1755696216,14:23:36
1067789,77,100,99,3,-6.29,4.9,5.8,-0.03,0.02,0,21.56,-1570.77,607.5,9667.55,1755696216,14:23:36
1067810,77,100,99,3,-6.32,4.89,5.83,-0.03,0.02,0.01,21.58,-1570.9,607.61,9667.68,1755696216,14:23:36
1067831,77,100,99,3,-6.32,4.87,5.86,-0.04,0.01,0.01,21.57,-1571.03,607.71,9667.8,1755696216,14:23:36
1067852,77,100,99,3,-6.27,4.85,5.79,-0.04,0.01,0.01,21.54,-1571.17,607.81,9667.92,1755696217,14:23:36
1067873,77,100,99,3,-6.26,4.86,5.78,-0.03,0.02,0.01,21.56,-1571.3,607.91,9668.04,1755696217,14:23:36
1067895,77,100,99,3,-6.29,4.85,5.81,-0.03,0.02,0.01,21.56,-1571.43,608.02,9668.17,1755696217,14:23:36
1067916,77,100,99,3,-6.29,4.86,5.81,-0.03,0,0.01,21.55,-1571.57,608.12,9668.29,1755696217,14:23:36
1067937,77,100,99,3,-6.23,4.86,5.79,-0.03,0,0,21.56,-1571.7,608.22,9668.42,1755696217,14:23:37
1067959,77,100,99,3,-6.3,4.86,5.8,-0.03,0.03,0,21.54,-1571.84,608.33,9668.54,1755696217,14:23:37
1067980,77,100,99,3,-6.31,4.87,5.88,-0.03,0.02,0.01,21.57,-1571.97,608.43,9668.67,1755696217,14:23:37
1068001,77,100,99,3,-6.31,4.84,5.85,-0.03,-0.01,0.01,21.57,-1572.1,608.53,9668.79,1755696217,14:23:37
1068022,77,100,99,3,-6.26,4.85,5.8,-0.03,0,0,21.57,-1572.23,608.64,9668.91,1755696217,14:23:37
1068043,77,100,99,3,-6.28,4.87,5.8,-0.03,0.02,0.01,21.55,-1572.36,608.74,9669.03,1755696218,14:23:37
1068064,77,100,99,3,-6.32,4.83,5.81,-0.03,0.02,0.01,21.56,-1572.5,608.84,9669.16,1755696218,14:23:37
1068085,77,100,99,3,-6.28,4.85,5.8,-0.02,0,0,21.56,-1572.63,608.94,9669.28,1755696218,14:23:37
1068107,77,100,99,3,-6.26,4.86,5.81,-0.03,0.01,0,21.57,-1572.77,609.05,9669.41,1755696218,14:23:37
1068128,77,100,99,3,-6.27,4.85,5.81,-0.03,0.02,0,21.56,-1572.9,609.15,9669.53,1755696218,14:23:37
1068150,77,100,99,3,-6.29,4.84,5.83,-0.03,0.01,0,21.56,-1573.04,609.26,9669.66,1755696218,14:23:38
1068171,77,100,99,3,-6.28,4.86,5.81,-0.03,0,0,21.57,-1573.17,609.36,9669.78,1755696218,14:23:38
1068192,77,100,99,3,-6.29,4.85,5.78,-0.03,0.01,0,21.58,-1573.3,609.46,9669.9,1755696218,14:23:38
1068213,77,100,99,3,-6.29,4.84,5.82,-0.03,0.01,0,21.57,-1573.43,609.56,9670.02,1755696218,14:23:38
1068234,77,100,99,3,-6.31,4.85,5.81,-0.03,0.01,0,21.57,-1573.57,609.66,9670.14,1755696218,14:23:38
1068255,77,100,99,3,-6.28,4.84,5.8,-0.03,0.01,0,21.57,-1573.7,609.77,9670.27,1755696219,14:23:38
1068276,77,100,99,3,-6.29,4.83,5.81,-0.03,0.01,0,21.57,-1573.83,609.87,9670.39,1755696219,14:23:38
1068298,77,100,99,3,-6.27,4.85,5.77,-0.03,0.01,0,21.57,-1573.97,609.97,9670.51,1755696219,14:23:38
1068319,77,100,99,3,-6.29,4.87,5.81,-0.03,0.01,0,21.58,-1574.1,610.08,9670.64,1755696219,14:23:38
1068340,77,100,99,3,-6.28,4.84,5.78,-0.03,0.01,0,21.59,-1574.23,610.18,9670.76,1755696219,14:23:38
1068361,77,100,99,3,-6.28,4.85,5.82,-0.03,0.01,0,21.57,-1574.36,610.28,9670.88,1755696219,14:23:39
1068382,77,100,99,3,-6.3,4.85,5.81,-0.03,0.01,0,21.57,-1574.5,610.38,9671,1755696219,14:23:39
1068404,77,100,99,3,-6.31,4.85,5.83,-0.02,0.01,0,21.58,-1574.63,610.49,9671.13,1755696219,14:23:39
1068425,77,100,99,3,-6.31,4.88,5.86,-0.01,0.01,0,21.57,-1574.77,610.59,9671.25,1755696219,14:23:39
1068446,77,100,99,3,-6.29,4.88,5.86,-0.03,0,0.01,21.58,-1574.9,610.69,9671.38,1755696219,14:23:39
1068468,77,100,99,3,-6.26,4.85,5.8,-0.04,0,0.01,21.56,-1575.04,610.8,9671.5,1755696219,14:23:39
1068489,77,100,99,3,-6.28,4.83,5.75,-0.03,0.01,0,21.57,-1575.17,610.9,9671.63,1755696220,14:23:39
1068511,77,100,99,3,-6.29,4.82,5.82,-0.01,0.02,0,21.57,-1575.31,611.01,9671.75,1755696220,14:23:39
1068532,77,100,99,3,-6.32,4.82,5.83,-0.02,0,0.01,21.57,-1575.44,611.11,9671.87,1755696220,14:23:39
1068553,77,100,99,3,-6.32,4.79,5.83,-0.02,-0.01,0.01,21.57,-1575.57,611.21,9672,1755696220,14:23:39
1068574,77,100,99,3,-6.3,4.84,5.8,-0.01,0,0,21.57,-1575.7,611.31,9672.12,1755696220,14:23:39
1068595,77,100,99,3,-6.29,4.89,5.84,-0.01,0.02,0,21.59,-1575.84,611.41,9672.24,1755696220,14:23:40
1068617,77,100,99,3,-6.31,4.89,5.8,-0.02,0,0.01,21.57,-1575.98,611.52,9672.37,1755696220,14:23:40
1068638,77,100,99,3,-6.28,4.89,5.8,-0.02,0,0,21.58,-1576.11,611.62,9672.49,1755696220,14:23:40
1068660,77,100,99,3,-6.31,4.86,5.78,-0.02,0.01,0.01,21.57,-1576.25,611.73,9672.62,1755696220,14:23:40
1068681,77,100,99,3,-6.3,4.84,5.83,-0.03,0.01,0.01,21.58,-1576.38,611.83,9672.74,1755696220,14:23:40
1068704,77,100,99,3,-6.29,4.81,5.83,-0.02,0,0,21.57,-1576.52,611.94,9672.87,1755696220,14:23:40
1068726,77,100,99,3,-6.32,4.88,5.83,-0.02,0.01,0,21.58,-1576.66,612.05,9673,1755696221,14:23:40
1068747,77,100,99,3,-6.32,4.87,5.84,-0.02,0.02,0.01,21.57,-1576.79,612.15,9673.12,1755696221,14:23:40
1068768,77,100,99,3,-6.27,4.86,5.8,-0.04,0,0.01,21.59,-1576.93,612.25,9673.25,1755696221,14:23:40
1068789,77,100,99,3,-6.25,4.87,5.74,-0.03,0.01,0,21.57,-1577.06,612.36,9673.37,1755696221,14:23:40
1068811,77,100,99,3,-6.28,4.85,5.78,-0.02,0.02,0,21.57,-1577.2,612.46,9673.49,1755696221,14:23:40
1068832,77,100,99,3,-6.34,4.84,5.85,-0.02,0.01,0.01,21.56,-1577.33,612.56,9673.62,1755696221,14:23:40
1068853,77,100,99,3,-6.32,4.85,5.84,-0.02,-0.01,0,21.56,-1577.46,612.67,9673.74,1755696221,14:23:40
1068875,77,100,99,3,-6.28,4.88,5.81,-0.03,0,0,21.54,-1577.6,612.77,9673.87,1755696221,14:23:41
1068896,77,100,99,3,-6.3,4.87,5.8,-0.03,0.03,0.01,21.57,-1577.73,612.88,9673.99,1755696221,14:23:41
1068918,77,100,99,3,-6.29,4.85,5.8,-0.03,0.01,0.01,21.56,-1577.87,612.98,9674.12,1755696221,14:23:41
1068939,77,100,99,3,-6.28,4.86,5.77,-0.03,0,0,21.54,-1578,613.08,9674.24,1755696221,14:23:41
1068960,77,100,99,3,-6.28,4.85,5.79,-0.03,0.01,0,21.58,-1578.13,613.19,9674.36,1755696221,14:23:41
1068981,77,100,99,3,-6.3,4.86,5.79,-0.03,0.02,0,21.57,-1578.27,613.29,9674.48,1755696221,14:23:41
1069003,77,100,99,3,-6.3,4.85,5.81,-0.03,0.01,0,21.56,-1578.41,613.4,9674.61,1755696221,14:23:41
1069025,77,100,99,3,-6.29,4.86,5.83,-0.03,0.01,0,21.57,-1578.54,613.5,9674.74,1755696222,14:23:41
1069046,77,100,99,3,-6.28,4.85,5.81,-0.03,0.02,0.01,21.55,-1578.68,613.6,9674.86,1755696222,14:23:41
1069068,77,100,99,3,-6.3,4.83,5.84,-0.03,0.02,0.01,21.58,-1578.81,613.71,9674.99,1755696222,14:23:41
1069090,77,100,99,3,-6.29,4.84,5.82,-0.03,0.01,0,21.57,-1578.95,613.82,9675.11,1755696222,14:23:41
1069112,77,100,99,3,-6.29,4.82,5.83,-0.03,0.01,0,21.57,-1579.09,613.92,9675.24,1755696222,14:23:41
1069133,77,100,99,3,-6.3,4.85,5.79,-0.03,0.01,0,21.55,-1579.22,614.02,9675.36,1755696222,14:23:41
1069154,77,100,99,3,-6.31,4.87,5.81,-0.03,0.01,0,21.57,-1579.36,614.13,9675.49,1755696222,14:23:41
1069175,77,100,99,3,-6.31,4.87,5.79,-0.03,0.01,0,21.57,-1579.49,614.23,9675.61,1755696222,14:23:42
1069196,77,100,99,3,-6.29,4.87,5.81,-0.03,0.01,0.01,21.56,-1579.62,614.33,9675.73,1755696222,14:23:42
1069218,77,100,99,3,-6.28,4.84,5.81,-0.03,0.01,0.01,21.57,-1579.76,614.44,9675.86,1755696222,14:23:42
1069240,76,100,99,3,-6.31,4.84,5.79,-0.03,0.01,0.01,21.58,-1579.9,614.54,9675.99,1755696222,14:23:42
1069261,76,100,99,3,-6.31,4.84,5.82,-0.02,0.01,0,21.57,-1580.03,614.65,9676.11,1755696223,14:23:42
1069284,76,100,99,3,-6.31,4.87,5.84,-0.02,0.01,0,21.55,-1580.17,614.76,9676.24,1755696223,14:23:42
1069305,76,100,99,3,-6.29,4.87,5.83,-0.03,0.01,0.01,21.55,-1580.31,614.86,9676.36,1755696223,14:23:42
1069327,76,100,99,3,-6.29,4.85,5.8,-0.03,0.01,0,21.57,-1580.45,614.97,9676.49,1755696223,14:23:43
1069348,76,100,99,3,-6.28,4.86,5.8,-0.02,0.01,0,21.57,-1580.58,615.07,9676.61,1755696223,14:23:43
1069369,76,100,99,3,-6.29,4.88,5.88,-0.01,0.01,0,21.57,-1580.71,615.17,9676.74,1755696223,14:23:43
1069390,76,100,99,3,-6.31,4.85,5.86,-0.03,-0.01,0.01,21.58,-1580.84,615.27,9676.86,1755696223,14:23:43
1069411,76,100,99,3,-6.3,4.83,5.79,-0.03,0,0,21.57,-1580.97,615.37,9676.98,1755696224,14:23:43
1069434,76,100,99,3,-6.3,4.85,5.8,-0.02,0.01,0,21.58,-1581.12,615.49,9677.12,1755696224,14:23:43
1069455,76,100,99,3,-6.3,4.86,5.83,-0.02,0.01,0.01,21.57,-1581.25,615.59,9677.24,1755696224,14:23:43
1069477,76,100,99,3,-6.3,4.87,5.79,-0.02,0,0,21.58,-1581.39,615.7,9677.37,1755696224,14:23:43
1069498,76,100,99,3,-6.29,4.86,5.79,-0.02,0.01,0,21.58,-1581.52,615.8,9677.49,1755696224,14:23:44
1069519,76,100,99,3,-6.33,4.87,5.83,-0.02,0.02,0.01,21.58,-1581.65,615.9,9677.61,1755696224,14:23:44
1069540,76,100,99,3,-6.31,4.84,5.83,-0.03,0.01,0.01,21.58,-1581.79,616,9677.73,1755696224,14:23:44
1069561,76,100,99,3,-6.29,4.84,5.83,-0.03,0.01,0.01,21.57,-1581.92,616.1,9677.85,1755696224,14:23:44
1069582,76,100,99,3,-6.25,4.88,5.81,-0.02,0.02,0,21.58,-1582.05,616.21,9677.98,1755696224,14:23:44
1069603,76,100,99,3,-6.29,4.86,5.86,-0.03,0.02,0.01,21.57,-1582.18,616.31,9678.1,1755696225,14:23:44
1069625,76,100,99,3,-6.27,4.84,5.84,-0.02,-0.01,0.01,21.59,-1582.32,616.41,9678.23,1755696225,14:23:44
1069647,76,100,99,3,-6.26,4.87,5.81,-0.01,-0.01,0,21.58,-1582.46,616.52,9678.35,1755696225,14:23:44
1069668,76,100,99,3,-6.31,4.85,5.83,-0.02,0.01,0.01,21.57,-1582.59,616.62,9678.48,1755696225,14:23:44
1069689,76,100,99,3,-6.34,4.84,5.85,-0.02,-0.01,0.01,21.56,-1582.72,616.72,9678.6,1755696225,14:23:45
1069710,76,100,99,3,-6.29,4.85,5.8,-0.01,-0.02,0,21.58,-1582.86,616.83,9678.72,1755696225,14:23:45
1069732,76,100,99,3,-6.29,4.87,5.77,-0.01,0.01,0.01,21.59,-1582.99,616.93,9678.85,1755696225,14:23:45
1069753,76,100,99,3,-6.31,4.86,5.81,-0.02,0.02,0.01,21.59,-1583.13,617.04,9678.97,1755696225,14:23:45
1069774,76,100,99,3,-6.3,4.84,5.81,-0.01,0.01,0.01,21.57,-1583.26,617.14,9679.09,1755696225,14:23:45
1069796,76,100,99,3,-6.28,4.85,5.78,-0.01,0,0.01,21.59,-1583.4,617.24,9679.22,1755696226,14:23:45
1069817,76,100,99,3,-6.25,4.87,5.82,-0.01,0.01,0.01,21.59,-1583.53,617.35,9679.34,1755696226,14:23:45
1069838,76,100,99,3,-6.29,4.89,5.83,-0.01,0.01,0,21.58,-1583.66,617.45,9679.46,1755696226,14:23:45
1069859,76,100,99,3,-6.31,4.9,5.8,-0.01,0,0,21.59,-1583.79,617.55,9679.59,1755696226,14:23:45
1069880,76,100,99,3,-6.3,4.9,5.8,-0.02,-0.01,0.01,21.58,-1583.93,617.65,9679.71,1755696226,14:23:45
1069901,76,100,99,3,-6.28,4.87,5.79,-0.02,0,0.01,21.59,-1584.06,617.76,9679.83,1755696226,14:23:45
1069922,76,100,99,3,-6.29,4.88,5.82,-0.01,0,0.01,21.58,-1584.19,617.86,9679.95,1755696226,14:23:46
1069945,76,100,99,3,-6.28,4.88,5.8,-0.01,0,0.01,21.59,-1584.33,617.97,9680.09,1755696226,14:23:46
1069966,76,100,99,3,-6.27,4.86,5.79,-0.01,0.01,0.01,21.6,-1584.47,618.07,9680.21,1755696226,14:23:46
1069987,76,100,99,3,-6.28,4.87,5.79,-0.01,0.01,0.01,21.57,-1584.6,618.18,9680.33,1755696226,14:23:46
1070008,0,0,0,0,-6.27,4.88,5.8,-0.02,0.01,0.01,21.58,-1584.73,618.28,9680.45,1755696226,14:23:46
1070049,76,100,99,3,-6.26,4.89,5.8,-0.02,0,0.01,21.59,-1584.99,618.48,9680.69,1755696226,14:23:46
1070070,76,100,99,3,-6.29,4.87,5.82,-0.02,-0.01,0.01,21.59,-1585.12,618.58,9680.81,1755696227,14:23:46
1070091,76,100,99,3,-6.28,4.89,5.84,0,0.01,0,21.6,-1585.25,618.68,9680.94,1755696227,14:23:46
1070112,76,100,99,3,-6.3,4.91,5.83,-0.01,0,0.01,21.59,-1585.38,618.79,9681.06,1755696227,14:23:46
1070133,76,100,99,3,-6.26,4.89,5.8,-0.02,-0.01,0.01,21.58,-1585.51,618.89,9681.18,1755696227,14:23:46
1070155,76,100,99,3,-6.28,4.87,5.75,-0.02,0,0.01,21.58,-1585.65,619,9681.31,1755696227,14:23:46
1070176,76,100,99,3,-6.28,4.89,5.75,0,0.01,0,21.59,-1585.78,619.1,9681.43,1755696227,14:23:47
1070198,76,100,99,3,-6.3,4.9,5.83,-0.01,0,0.01,21.57,-1585.92,619.21,9681.55,1755696227,14:23:47
1070219,76,100,99,3,-6.28,4.88,5.81,-0.02,0,0.01,21.57,-1586.05,619.31,9681.68,1755696227,14:23:47
1070240,76,100,99,3,-6.27,4.89,5.78,-0.01,0.01,0,21.58,-1586.19,619.41,9681.8,1755696227,14:23:47
1070262,76,100,99,3,-6.26,4.93,5.78,-0.01,0.01,0,21.56,-1586.32,619.52,9681.93,1755696228,14:23:47
1070283,76,100,99,3,-6.26,4.94,5.77,-0.02,0,0.01,21.58,-1586.46,619.62,9682.05,1755696228,14:23:47
1070304,76,100,99,3,-6.25,4.93,5.77,-0.02,0,0.01,21.58,-1586.59,619.73,9682.17,1755696228,14:23:47
1070325,76,100,99,3,-6.28,4.95,5.78,-0.01,0.01,0.01,21.59,-1586.72,619.83,9682.29,1755696228,14:23:47
1070347,76,100,99,3,-6.27,4.93,5.84,-0.02,0,0.01,21.57,-1586.86,619.94,9682.42,1755696228,14:23:47
1070368,76,100,99,3,-6.26,4.91,5.84,-0.02,-0.01,0.01,21.58,-1586.99,620.04,9682.54,1755696228,14:23:48
1070389,76,100,99,3,-6.24,4.93,5.79,-0.02,0,0.01,21.57,-1587.12,620.15,9682.66,1755696228,14:23:48
1070411,76,100,99,3,-6.25,4.91,5.77,-0.02,0.01,0.01,21.57,-1587.26,620.25,9682.79,1755696228,14:23:48
1070432,76,100,99,3,-6.27,4.88,5.77,-0.02,0,0.01,21.58,-1587.39,620.36,9682.91,1755696228,14:23:48
1070454,76,100,99,3,-6.23,4.89,5.77,-0.02,-0.01,0,21.56,-1587.53,620.47,9683.04,1755696228,14:23:48
1070475,76,100,99,3,-6.25,4.92,5.77,-0.02,0,0,21.56,-1587.66,620.57,9683.16,1755696229,14:23:48
1070496,76,100,99,3,-6.28,4.92,5.79,-0.03,0.01,0.01,21.57,-1587.79,620.67,9683.28,1755696229,14:23:48
1070517,76,100,99,3,-6.28,4.91,5.79,-0.03,0,0,21.56,-1587.92,620.77,9683.4,1755696229,14:23:48
1070539,76,100,99,3,-6.22,4.93,5.77,-0.04,0,0,21.56,-1588.06,620.88,9683.53,1755696229,14:23:48
1070561,76,100,99,3,-6.22,4.94,5.73,-0.04,0.02,0,21.59,-1588.2,620.99,9683.65,1755696229,14:23:48
1070582,76,100,99,3,-6.27,4.89,5.77,-0.04,0.02,0.01,21.57,-1588.33,621.09,9683.78,1755696229,14:23:49
1070603,76,100,99,3,-6.29,4.9,5.82,-0.04,0,0,21.57,-1588.46,621.2,9683.9,1755696229,14:23:49
1070624,76,100,99,3,-6.24,4.91,5.78,-0.04,0.01,0,21.55,-1588.59,621.3,9684.02,1755696229,14:23:49
1070645,76,100,99,3,-6.26,4.91,5.79,-0.04,0.03,0,21.57,-1588.72,621.4,9684.14,1755696229,14:23:49
1070667,76,100,99,3,-6.25,4.9,5.84,-0.04,0.02,0,21.57,-1588.86,621.51,9684.27,1755696230,14:23:49
1070688,76,100,99,3,-6.24,4.92,5.79,-0.04,0,0,21.56,-1588.99,621.61,9684.39,1755696230,14:23:49
1070709,76,100,99,3,-6.25,4.91,5.77,-0.04,0.01,0,21.57,-1589.12,621.72,9684.51,1755696230,14:23:49
1070730,76,100,99,3,-6.26,4.88,5.78,-0.04,0.02,0,21.55,-1589.25,621.82,9684.63,1755696230,14:23:49
1070752,76,100,99,3,-6.28,4.87,5.8,-0.04,0.01,0,21.57,-1589.39,621.93,9684.76,1755696230,14:23:49
1070774,76,100,99,3,-6.27,4.9,5.79,-0.04,0.01,0,21.58,-1589.53,622.04,9684.89,1755696230,14:23:50
1070795,76,100,99,3,-6.3,4.91,5.81,-0.04,0.01,0,21.55,-1589.66,622.14,9685.01,1755696230,14:23:50
1070816,76,100,99,3,-6.28,4.9,5.79,-0.04,0.02,0,21.57,-1589.79,622.24,9685.13,1755696230,14:23:50
1070837,76,100,99,3,-6.28,4.91,5.8,-0.05,0.02,0,21.56,-1589.92,622.34,9685.25,1755696231,14:23:50
1070859,76,100,99,3,-6.27,4.86,5.77,-0.05,0.02,0,21.56,-1590.06,622.45,9685.38,1755696231,14:23:50
1070880,76,100,99,3,-6.3,4.88,5.82,-0.04,0.03,0,21.56,-1590.19,622.55,9685.5,1755696231,14:23:50
1070901,76,100,99,3,-6.28,4.88,5.86,-0.04,0.02,0,21.57,-1590.33,622.66,9685.63,1755696231,14:23:50
1070924,76,100,99,3,-6.24,4.87,5.81,-0.05,0.01,0,21.56,-1590.47,622.77,9685.76,1755696231,14:23:51
1070945,76,100,99,3,-6.26,4.85,5.78,-0.04,0.02,0,21.59,-1590.6,622.87,9685.88,1755696231,14:23:51
1070966,76,100,99,3,-6.27,4.87,5.8,-0.03,0.02,0,21.56,-1590.73,622.97,9686,1755696231,14:23:51
1070987,76,100,99,3,-6.28,4.88,5.83,-0.03,0.01,0,21.58,-1590.86,623.08,9686.13,1755696231,14:23:51
1071008,76,100,99,3,-6.3,4.87,5.83,-0.04,0,0,21.58,-1591,623.18,9686.25,1755696231,14:23:51
1071029,76,100,99,3,-6.28,4.87,5.8,-0.03,0,0,21.57,-1591.13,623.28,9686.37,1755696232,14:23:51
1071050,76,100,99,3,-6.26,4.87,5.8,-0.03,0.01,0,21.57,-1591.26,623.38,9686.49,1755696232,14:23:51
1071072,76,100,99,3,-6.29,4.84,5.81,-0.03,0.01,0,21.55,-1591.4,623.49,9686.62,1755696232,14:23:51
1071093,76,100,99,3,-6.29,4.88,5.8,-0.03,0,0,21.56,-1591.53,623.59,9686.74,1755696232,14:23:51
1071114,76,100,99,3,-6.31,4.87,5.81,-0.03,0.01,0,21.57,-1591.66,623.69,9686.86,1755696232,14:23:52
1071136,76,100,99,3,-6.3,4.86,5.84,-0.03,0.02,0,21.57,-1591.8,623.8,9686.99,1755696232,14:23:52
1071157,76,100,99,3,-6.31,4.86,5.81,-0.04,0.01,0,21.57,-1591.93,623.9,9687.11,1755696232,14:23:52
1071179,76,100,99,3,-6.31,4.87,5.79,-0.03,0.02,0,21.56,-1592.07,624.01,9687.24,1755696232,14:23:52
1071200,76,100,99,3,-6.28,4.86,5.83,-0.03,0.03,0,21.57,-1592.21,624.11,9687.36,1755696233,14:23:52
1071221,76,100,99,3,-6.27,4.85,5.83,-0.03,0.02,0.01,21.56,-1592.34,624.21,9687.49,1755696233,14:23:52
1071243,76,100,99,3,-6.25,4.84,5.81,-0.03,0,0,21.58,-1592.47,624.32,9687.61,1755696233,14:23:52
1071264,76,100,99,3,-6.3,4.86,5.79,-0.02,0.01,0,21.55,-1592.61,624.42,9687.74,1755696233,14:23:52
1071285,76,100,99,3,-6.31,4.84,5.87,-0.02,0.01,0,21.54,-1592.74,624.52,9687.86,1755696233,14:23:52
1071306,76,100,99,3,-6.28,4.84,5.85,-0.02,0,0,21.57,-1592.87,624.63,9687.98,1755696233,14:23:52
1071327,76,100,99,3,-6.26,4.86,5.77,-0.03,0,0,21.57,-1593,624.73,9688.1,1755696233,14:23:52
1071348,76,100,99,3,-6.3,4.86,5.8,-0.03,0.01,0.01,21.56,-1593.13,624.83,9688.22,1755696233,14:23:53
1071370,76,100,99,3,-6.32,4.81,5.77,-0.02,0.01,0,21.57,-1593.27,624.94,9688.35,1755696233,14:23:53
1071391,76,100,99,3,-6.3,4.85,5.79,-0.02,0,0,21.58,-1593.41,625.04,9688.47,1755696233,14:23:53
1071412,75,100,99,3,-6.25,4.86,5.79,-0.03,0.01,0,21.58,-1593.54,625.14,9688.59,1755696233,14:23:53
1071433,75,100,99,3,-6.3,4.85,5.8,-0.03,0.03,0,21.58,-1593.67,625.24,9688.72,1755696234,14:23:53
1071454,75,100,99,3,-6.31,4.86,5.84,-0.02,0.01,0,21.57,-1593.8,625.34,9688.84,1755696234,14:23:53
1071476,75,100,99,3,-6.3,4.88,5.82,-0.03,0,0,21.57,-1593.94,625.45,9688.97,1755696234,14:23:53
1071497,75,100,99,3,-6.28,4.87,5.78,-0.03,0.01,0.01,21.59,-1594.07,625.55,9689.09,1755696234,14:23:53
1071518,75,100,99,3,-6.31,4.87,5.78,-0.03,0.02,0,21.57,-1594.2,625.65,9689.21,1755696234,14:23:53
1071539,75,100,99,3,-6.32,4.85,5.81,-0.02,0.01,0,21.57,-1594.34,625.76,9689.33,1755696234,14:23:54
1071560,75,100,99,3,-6.28,4.85,5.79,-0.03,0,0.01,21.57,-1594.47,625.86,9689.45,1755696234,14:23:54
1071581,75,100,99,3,-6.31,4.87,5.81,-0.02,0.01,0.01,21.58,-1594.6,625.96,9689.58,1755696234,14:23:54
1071602,75,100,99,3,-6.28,4.86,5.8,-0.02,0.01,0,21.58,-1594.73,626.06,9689.7,1755696234,14:23:54
1071623,75,100,99,3,-6.28,4.86,5.78,-0.03,0,0.01,21.56,-1594.87,626.16,9689.82,1755696235,14:23:54
1071644,75,100,99,3,-6.3,4.82,5.76,-0.02,0.01,0.01,21.57,-1595,626.27,9689.94,1755696235,14:23:54
1071665,75,100,99,3,-6.34,4.87,5.8,-0.02,0.02,0,21.57,-1595.13,626.37,9690.06,1755696235,14:23:54
1071687,75,100,99,3,-6.3,4.87,5.87,-0.03,0.01,0.01,21.59,-1595.27,626.47,9690.19,1755696235,14:23:54
1071708,75,100,99,3,-6.27,4.85,5.78,-0.04,0.01,0.01,21.59,-1595.4,626.58,9690.31,1755696235,14:23:54
1071729,75,100,99,3,-6.28,4.83,5.78,-0.02,0.01,0,21.59,-1595.53,626.68,9690.43,1755696235,14:23:54
1071750,75,100,99,3,-6.3,4.87,5.81,-0.01,0.01,0,21.56,-1595.67,626.78,9690.55,1755696235,14:23:55
1071771,75,100,99,3,-6.3,4.86,5.85,-0.03,0,0.01,21.58,-1595.8,626.88,9690.68,1755696235,14:23:55
1071793,75,100,99,3,-6.28,4.84,5.83,-0.02,-0.01,0,21.58,-1595.94,626.99,9690.81,1755696235,14:23:55
1071814,75,100,99,3,-6.28,4.84,5.77,-0.02,0,0,21.57,-1596.07,627.09,9690.93,1755696235,14:23:55
1071835,75,100,99,3,-6.28,4.87,5.77,-0.02,0.01,0,21.58,-1596.2,627.19,9691.05,1755696235,14:23:55
1071857,75,100,99,3,-6.29,4.88,5.8,-0.03,0,0.01,21.58,-1596.34,627.3,9691.18,1755696236,14:23:55
1071879,75,100,99,3,-6.3,4.84,5.79,-0.03,0,0,21.57,-1596.48,627.41,9691.3,1755696236,14:23:55
1071900,75,100,99,3,-6.3,4.86,5.8,-0.03,0.02,0.01,21.58,-1596.61,627.51,9691.43,1755696236,14:23:55
1071921,75,100,99,3,-6.32,4.85,5.82,-0.03,0.02,0,21.58,-1596.74,627.61,9691.55,1755696236,14:23:55
1071942,75,100,99,3,-6.31,4.86,5.81,-0.04,0.01,0,21.57,-1596.87,627.71,9691.67,1755696236,14:23:56
1071963,75,100,99,3,-6.3,4.87,5.79,-0.03,0.01,0,21.58,-1597.01,627.81,9691.79,1755696236,14:23:56
1071985,75,100,99,3,-6.29,4.87,5.81,-0.03,0.03,0.01,21.58,-1597.15,627.92,9691.92,1755696236,14:23:56
1072006,75,100,99,3,-6.28,4.84,5.82,-0.04,0.01,0,21.57,-1597.28,628.02,9692.04,1755696236,14:23:56
1072027,75,100,99,3,-6.27,4.85,5.81,-0.03,0,0,21.59,-1597.41,628.13,9692.16,1755696237,14:23:56
1072048,74,100,99,3,-6.28,4.86,5.83,-0.03,0.01,0.01,21.58,-1597.54,628.23,9692.29,1755696237,14:23:56
1072069,74,100,99,3,-6.33,4.83,5.84,-0.03,0.01,0.01,21.58,-1597.67,628.33,9692.41,1755696237,14:23:56
1072091,74,100,99,3,-6.3,4.84,5.81,-0.03,0,0,21.59,-1597.81,628.44,9692.54,1755696237,14:23:56
1072112,74,100,99,3,-6.28,4.87,5.77,-0.03,0.01,0,21.57,-1597.94,628.54,9692.66,1755696237,14:23:56
1072133,74,100,99,3,-6.3,4.85,5.78,-0.03,0.03,0.01,21.58,-1598.08,628.64,9692.78,1755696237,14:23:56
1072155,74,100,99,3,-6.31,4.85,5.8,-0.03,0.01,0,21.58,-1598.21,628.75,9692.91,1755696237,14:23:57
1072177,74,100,99,3,-6.28,4.85,5.8,-0.03,0.01,0,21.59,-1598.35,628.85,9693.03,1755696237,14:23:57
1072199,74,100,99,3,-6.28,4.84,5.79,-0.03,0.02,0,21.59,-1598.49,628.96,9693.16,1755696237,14:23:57
1072220,74,100,99,3,-6.32,4.85,5.81,-0.03,0.02,0,21.59,-1598.62,629.06,9693.28,1755696237,14:23:57
1072241,74,100,99,3,-6.32,4.85,5.82,-0.03,0.01,0,21.59,-1598.76,629.16,9693.41,1755696238,14:23:57
1072262,74,100,99,3,-6.29,4.86,5.81,-0.03,0.01,0,21.59,-1598.89,629.26,9693.53,1755696238,14:23:57
1072283,74,100,99,3,-6.29,4.85,5.81,-0.03,0.02,0.01,21.59,-1599.02,629.37,9693.65,1755696238,14:23:57
1072305,74,100,99,3,-6.3,4.83,5.82,-0.03,0.01,0,21.58,-1599.16,629.47,9693.78,1755696238,14:23:57
1072326,74,100,99,3,-6.31,4.83,5.81,-0.03,0,0,21.58,-1599.29,629.57,9693.9,1755696238,14:23:58
1072348,74,100,99,3,-6.29,4.83,5.8,-0.03,0.01,0.01,21.58,-1599.43,629.68,9694.03,1755696238,14:23:58
1072369,74,100,99,3,-6.33,4.83,5.79,-0.02,0.02,0,21.6,-1599.56,629.78,9694.15,1755696238,14:23:58
1072392,74,100,99,3,-6.32,4.86,5.83,-0.02,0.01,0,21.59,-1599.71,629.89,9694.28,1755696238,14:23:58
1072414,74,100,99,3,-6.31,4.86,5.82,-0.03,0,0.01,21.59,-1599.85,630,9694.41,1755696238,14:23:58
1072435,74,100,99,3,-6.31,4.86,5.8,-0.01,0.01,0,21.59,-1599.98,630.1,9694.53,1755696239,14:23:58
1072457,74,100,99,3,-6.29,4.91,5.84,-0.01,0,0,21.59,-1600.12,630.21,9694.66,1755696239,14:23:58
1072478,74,100,99,3,-6.28,4.86,5.82,-0.03,-0.01,0.01,21.59,-1600.25,630.31,9694.78,1755696239,14:23:58
1072499,74,100,99,3,-6.29,4.8,5.76,-0.03,0,0.01,21.59,-1600.38,630.41,9694.9,1755696239,14:23:58
1072520,74,100,99,3,-6.31,4.81,5.77,0,0.01,0,21.6,-1600.51,630.51,9695.03,1755696239,14:23:58
1072541,74,100,99,3,-6.32,4.86,5.85,0,0,0,21.59,-1600.65,630.62,9695.15,1755696239,14:23:58
1072562,74,100,99,3,-6.29,4.87,5.87,-0.01,-0.01,0.01,21.59,-1600.78,630.72,9695.27,1755696239,14:23:59
1072583,74,100,99,3,-6.31,4.84,5.82,-0.01,-0.01,0,21.59,-1600.91,630.82,9695.39,1755696239,14:23:59
1072604,74,100,99,3,-6.29,4.87,5.78,0,0.01,0,21.57,-1601.04,630.92,9695.52,1755696239,14:23:59
1072626,74,100,99,3,-6.3,4.88,5.8,-0.01,0,0,21.59,-1601.18,631.03,9695.64,1755696239,14:23:59
1072647,74,100,99,3,-6.3,4.87,5.82,-0.02,0,0.01,21.58,-1601.31,631.13,9695.76,1755696239,14:23:59
1072668,74,100,99,3,-6.31,4.87,5.78,-0.02,0.01,0,21.59,-1601.45,631.23,9695.89,1755696240,14:23:59
1072690,74,100,99,3,-6.33,4.86,5.8,-0.02,0.03,0.01,21.58,-1601.59,631.34,9696.01,1755696240,14:23:59
1072712,74,100,99,3,-6.33,4.81,5.8,-0.02,0.01,0.01,21.6,-1601.72,631.45,9696.14,1755696240,14:23:59
1072733,74,100,99,3,-6.33,4.82,5.79,-0.01,0.01,0,21.6,-1601.86,631.55,9696.26,1755696240,14:23:59
1072756,74,100,99,3,-6.25,4.89,5.8,-0.01,0.02,0,21.58,-1602,631.66,9696.4,1755696240,14:24:00
1072777,74,100,99,3,-6.29,4.89,5.8,-0.02,0.02,0.01,21.59,-1602.13,631.76,9696.52,1755696240,14:24:00
1072799,74,100,99,3,-6.28,4.86,5.79,-0.02,0,0,21.59,-1602.27,631.87,9696.65,1755696240,14:24:00
1072820,74,100,99,3,-6.26,4.89,5.76,-0.02,0,0,21.58,-1602.4,631.97,9696.77,1755696240,14:24:00
1072841,74,100,99,3,-6.3,4.86,5.77,-0.01,0.02,0.01,21.6,-1602.54,632.07,9696.89,1755696240,14:24:00
1072862,74,100,99,3,-6.33,4.85,5.85,-0.01,0.01,0.01,21.59,-1602.67,632.18,9697.01,1755696241,14:24:00
1072883,74,100,99,3,-6.32,4.85,5.8,-0.02,-0.01,0,21.59,-1602.8,632.28,9697.13,1755696241,14:24:00
1072904,74,100,99,3,-6.29,4.85,5.74,-0.02,0,0,21.59,-1602.93,632.38,9697.25,1755696241,14:24:00
1072925,74,100,99,3,-6.32,4.87,5.75,-0.01,0.03,0.01,21.58,-1603.07,632.48,9697.38,1755696241,14:24:00
1072946,74,100,99,3,-6.31,4.87,5.79,-0.01,0.01,0,21.6,-1603.2,632.58,9697.5,1755696241,14:24:00
1072967,74,100,99,3,-6.29,4.87,5.77,-0.01,0,0,21.58,-1603.33,632.69,9697.62,1755696241,14:24:01
1072988,74,100,99,3,-6.29,4.88,5.81,-0.01,0.02,0,21.59,-1603.46,632.79,9697.74,1755696241,14:24:01
1073010,74,100,99,3,-6.29,4.88,5.82,0,0.01,0,21.57,-1603.6,632.9,9697.87,1755696241,14:24:01
1073031,74,100,99,3,-6.32,4.88,5.8,0,0,0,21.59,-1603.73,633,9697.99,1755696241,14:24:01
1073052,74,100,99,3,-6.31,4.9,5.8,0,0,0,21.58,-1603.87,633.1,9698.11,1755696241,14:24:01
1073073,74,100,99,3,-6.3,4.87,5.78,-0.01,0,0,21.59,-1604,633.2,9698.23,1755696242,14:24:01
1073094,74,100,99,3,-6.3,4.89,5.77,-0.01,0,0,21.6,-1604.13,633.31,9698.35,1755696242,14:24:01
1073116,74,100,99,3,-6.28,4.88,5.76,-0.01,0.01,0.01,21.6,-1604.27,633.41,9698.48,1755696242,14:24:01
1073137,74,100,99,3,-6.31,4.9,5.8,-0.01,0.01,0.01,21.6,-1604.4,633.52,9698.6,1755696242,14:24:01
1073158,74,100,99,3,-6.29,4.86,5.79,-0.01,0,0,21.6,-1604.53,633.62,9698.72,1755696242,14:24:01
1073179,74,100,99,3,-6.3,4.88,5.76,-0.01,0,0.01,21.58,-1604.67,633.72,9698.84,1755696242,14:24:01
1073200,74,100,99,3,-6.27,4.89,5.77,-0.01,0,0.01,21.59,-1604.8,633.82,9698.97,1755696242,14:24:02
1073223,74,100,99,3,-6.3,4.87,5.79,-0.01,0,0.01,21.58,-1604.94,633.94,9699.1,1755696242,14:24:02
1073244,0,0,0,0,-6.32,4.93,5.81,0,0,0,21.58,-1605.08,634.04,9699.22,1755696242,14:24:02
1073285,74,100,99,3,-6.3,4.93,5.8,-0.02,0,0.01,21.58,-1605.33,634.24,9699.46,1755696242,14:24:02
1073306,74,100,99,3,-6.26,4.89,5.75,-0.02,0,0.01,21.62,-1605.47,634.34,9699.58,1755696242,14:24:02
1073328,74,100,99,3,-6.27,4.88,5.75,-0.01,0,0,21.6,-1605.6,634.45,9699.71,1755696242,14:24:02
1073349,74,100,99,3,-6.31,4.89,5.78,0,0.01,0.01,21.58,-1605.74,634.55,9699.83,1755696242,14:24:02
1073370,74,100,99,3,-6.31,4.9,5.82,-0.01,0,0.01,21.59,-1605.87,634.66,9699.95,1755696243,14:24:02
1073391,74,100,99,3,-6.28,4.92,5.79,-0.01,-0.02,0,21.61,-1606,634.76,9700.07,1755696243,14:24:02
1073413,74,100,99,3,-6.28,4.9,5.73,-0.01,0,0.01,21.59,-1606.14,634.87,9700.2,1755696243,14:24:02
1073435,74,100,99,3,-6.28,4.91,5.75,-0.02,0,0.01,21.59,-1606.28,634.98,9700.32,1755696243,14:24:02
1073456,74,100,99,3,-6.26,4.88,5.79,-0.01,-0.01,0.01,21.59,-1606.41,635.08,9700.45,1755696243,14:24:02
1073477,74,100,99,3,-6.29,4.9,5.74,-0.01,0,0.01,21.59,-1606.54,635.18,9700.57,1755696243,14:24:03
1073498,74,100,99,3,-6.29,4.91,5.76,-0.01,0.01,0.01,21.6,-1606.67,635.29,9700.69,1755696243,14:24:03
1073519,74,100,99,3,-6.3,4.9,5.77,-0.02,0.01,0.01,21.58,-1606.8,635.39,9700.81,1755696243,14:24:03
1073541,74,100,99,3,-6.26,4.93,5.78,-0.02,0.01,0.01,21.59,-1606.94,635.5,9700.94,1755696243,14:24:03
1073562,74,100,99,3,-6.27,4.96,5.77,-0.02,0.01,0.01,21.59,-1607.07,635.6,9701.06,1755696243,14:24:03
1073584,74,100,99,3,-6.23,4.92,5.79,-0.02,0.01,0.01,21.58,-1607.21,635.71,9701.18,1755696244,14:24:03
1073605,74,100,99,3,-6.24,4.91,5.74,-0.03,-0.01,0.01,21.59,-1607.34,635.81,9701.3,1755696244,14:24:03
1073627,74,100,99,3,-6.23,4.89,5.71,-0.02,-0.01,0.01,21.6,-1607.48,635.92,9701.43,1755696244,14:24:03
1073648,74,100,99,3,-6.29,4.91,5.77,-0.02,0.01,0.01,21.6,-1607.61,636.02,9701.55,1755696246,14:24:05
1073669,74,100,99,3,-6.31,4.89,5.77,-0.03,0,0.01,21.6,-1607.74,636.13,9701.67,1755696246,14:24:05
1073690,74,100,99,3,-6.28,4.9,5.76,-0.03,0,0,21.61,-1607.88,636.23,9701.79,1755696246,14:24:05
1073711,74,100,99,3,-6.27,4.92,5.73,-0.02,0.02,0,21.59,-1608.01,636.33,9701.91,1755696246,14:24:06
1073733,74,100,99,3,-6.29,4.95,5.74,-0.03,0.02,0.01,21.59,-1608.15,636.44,9702.04,1755696246,14:24:06
1073754,74,100,99,3,-6.29,4.93,5.77,-0.03,0.02,0.01,21.59,-1608.28,636.54,9702.16,1755696246,14:24:06
1073775,74,100,99,3,-6.23,4.95,5.81,-0.03,0.01,0.01,21.58,-1608.41,636.65,9702.28,1755696246,14:24:06
1073796,74,100,99,3,-6.23,4.94,5.78,-0.03,0.02,0.01,21.59,-1608.54,636.75,9702.4,1755696248,14:24:08
1073817,74,100,99,3,-6.25,4.95,5.77,-0.03,0.02,0.01,21.59,-1608.67,636.86,9702.52,1755696248,14:24:08
1073839,74,100,99,3,-6.28,4.95,5.8,-0.03,0,0.01,21.59,-1608.81,636.96,9702.65,1755696250,14:24:09
1073860,74,100,99,3,-6.26,4.91,5.81,-0.03,0,0.01,21.59,-1608.94,637.07,9702.77,1755696250,14:24:09
1073882,74,100,99,3,-6.28,4.9,5.78,-0.03,0.01,0.01,21.59,-1609.08,637.18,9702.9,1755696250,14:24:10
1073903,74,100,99,3,-6.29,4.9,5.77,-0.03,0,0.01,21.58,-1609.21,637.28,9703.02,1755696250,14:24:10
1073925,74,100,99,3,-6.27,4.94,5.79,-0.03,-0.01,0.01,21.6,-1609.35,637.39,9703.15,1755696250,14:24:10
1073947,74,100,99,3,-6.26,4.96,5.76,-0.04,0,0.01,21.6,-1609.49,637.5,9703.28,1755696250,14:24:10
1073968,74,100,99,3,-6.28,4.92,5.74,-0.05,0.01,0.01,21.6,-1609.62,637.6,9703.4,1755696250,14:24:10
1073990,74,100,99,3,-6.26,4.92,5.78,-0.04,0.02,0.01,21.59,-1609.76,637.71,9703.52,1755696252,14:24:12
1074011,74,100,99,3,-6.28,4.91,5.77,-0.04,0.01,0.01,21.6,-1609.89,637.81,9703.65,1755696252,14:24:12
1074032,74,100,99,3,-6.26,4.87,5.78,-0.04,0.01,0.01,21.59,-1610.02,637.91,9703.77,1755696252,14:24:12
1074054,74,100,99,3,-6.26,4.9,5.78,-0.03,0.02,0,21.59,-1610.16,638.02,9703.89,1755696257,14:24:16
1074075,74,100,99,3,-6.28,4.93,5.81,-0.04,0.01,0,21.61,-1610.29,638.12,9704.02,1755696257,14:24:16
1074097,74,100,99,3,-6.26,4.92,5.79,-0.05,0.02,0.01,21.62,-1610.43,638.23,9704.14,1755696258,14:24:18
1074118,74,100,99,3,-6.26,4.9,5.76,-0.05,0.03,0.01,21.61,-1610.56,638.34,9704.26,1755696258,14:24:18
1074139,74,100,99,3,-6.26,4.92,5.81,-0.03,0.02,0,21.6,-1610.69,638.44,9704.39,1755696281,14:24:40
1074160,74,100,99,3,-6.26,4.95,5.84,-0.03,0.02,0.01,21.61,-1610.82,638.54,9704.51,1755696281,14:24:40
1074181,74,100,99,3,-6.26,4.93,5.83,-0.04,0.01,0.01,21.61,-1610.95,638.65,9704.63,1755696281,14:24:41
1074202,74,100,99,3,-6.27,4.91,5.8,-0.04,-0.01,0,21.61,-1611.08,638.75,9704.75,1755696281,14:24:41
1074223,75,100,100,3,-6.23,4.93,5.82,-0.03,0,0,21.6,-1611.22,638.85,9704.87,1755696281,14:24:41
1074245,75,100,100,3,-6.24,4.93,5.82,-0.04,0.01,0.01,21.6,-1611.35,638.96,9705,1755696281,14:24:41
1074266,75,100,100,3,-6.27,4.89,5.81,-0.04,0,0,21.59,-1611.48,639.06,9705.12,1755696281,14:24:41
1074287,75,100,100,3,-6.27,4.91,5.75,-0.03,0,0,21.6,-1611.62,639.17,9705.25,1755696281,14:24:41
1074308,75,100,100,3,-6.28,4.91,5.76,-0.03,0.01,0.01,21.59,-1611.75,639.27,9705.37,1755696282,14:24:41
1074329,75,100,100,3,-6.26,4.91,5.81,-0.03,0.02,0.01,21.59,-1611.88,639.37,9705.49,1755696282,14:24:41
1074351,75,100,100,3,-6.26,4.89,5.8,-0.04,0.01,0.01,21.59,-1612.02,639.48,9705.62,1755696282,14:24:41
1074372,75,100,100,3,-6.25,4.9,5.79,-0.04,0.03,0.01,21.61,-1612.15,639.58,9705.74,1755696282,14:24:41
1074394,75,100,100,3,-6.28,4.9,5.81,-0.04,0.03,0.01,21.59,-1612.29,639.69,9705.87,1755696282,14:24:41
1074415,75,100,100,3,-6.23,4.89,5.8,-0.04,0.01,0,21.59,-1612.42,639.8,9705.99,1755696282,14:24:42
1074437,75,100,100,3,-6.21,4.9,5.75,-0.03,0.01,0,21.6,-1612.55,639.9,9706.12,1755696282,14:24:42
1074459,75,100,100,3,-6.27,4.88,5.8,-0.03,0.03,0,21.59,-1612.69,640.01,9706.24,1755696283,14:24:42
1074480,75,100,100,3,-6.3,4.87,5.87,-0.03,0.01,0,21.61,-1612.82,640.11,9706.36,1755696283,14:24:42
1074501,75,100,100,3,-6.25,4.88,5.86,-0.03,-0.01,0,21.6,-1612.96,640.22,9706.49,1755696283,14:24:42
1074522,75,100,100,3,-6.24,4.9,5.77,-0.03,0.01,0,21.59,-1613.09,640.32,9706.61,1755696283,14:24:42
1074544,75,100,100,3,-6.25,4.89,5.77,-0.02,0.01,0,21.59,-1613.22,640.43,9706.74,1755696283,14:24:42
1074565,75,100,100,3,-6.28,4.91,5.8,-0.02,0,0,21.59,-1613.36,640.53,9706.86,1755696283,14:24:42
1074586,75,100,100,3,-6.26,4.96,5.81,-0.02,-0.01,0,21.61,-1613.49,640.63,9706.98,1755696283,14:24:42
1074608,75,100,100,3,-6.27,4.89,5.79,-0.03,0.01,0,21.6,-1613.63,640.74,9707.11,1755696283,14:24:43
1074629,75,100,100,3,-6.26,4.87,5.82,-0.03,0.01,0,21.6,-1613.76,640.84,9707.23,1755696283,14:24:43
1074650,75,100,100,3,-6.27,4.9,5.8,-0.03,0.01,0,21.59,-1613.89,640.95,9707.35,1755696283,14:24:43
1074672,75,100,100,3,-6.28,4.87,5.81,-0.03,0.02,0,21.59,-1614.03,641.05,9707.48,1755696283,14:24:43
1074693,75,100,100,3,-6.27,4.87,5.84,-0.03,0.02,0,21.6,-1614.16,641.16,9707.6,1755696283,14:24:43
1074716,75,100,100,3,-6.27,4.92,5.82,-0.03,0.01,0,21.6,-1614.3,641.27,9707.74,1755696284,14:24:43
1074737,75,100,100,3,-6.28,4.91,5.84,-0.03,0.01,0,21.6,-1614.43,641.37,9707.86,1755696284,14:24:43
1074759,75,100,100,3,-6.25,4.9,5.82,-0.03,0.01,0,21.6,-1614.57,641.48,9707.99,1755696284,14:24:43
1074780,75,100,100,3,-6.26,4.9,5.81,-0.03,0.01,0,21.59,-1614.7,641.58,9708.11,1755696284,14:24:43
1074801,75,100,100,3,-6.29,4.89,5.79,-0.02,0,0,21.58,-1614.84,641.69,9708.23,1755696284,14:24:43
1074822,75,100,100,3,-6.29,4.87,5.8,-0.02,0,0,21.6,-1614.97,641.79,9708.35,1755696284,14:24:43
1074843,75,100,100,3,-6.29,4.88,5.8,-0.02,0,0,21.59,-1615.1,641.89,9708.47,1755696284,14:24:43
1074865,75,100,100,3,-6.29,4.87,5.8,-0.02,0.01,0,21.6,-1615.24,642,9708.6,1755696284,14:24:44
1074886,75,100,100,3,-6.3,4.83,5.77,-0.03,0.01,0,21.59,-1615.37,642.1,9708.72,1755696284,14:24:44
1074908,75,100,100,3,-6.29,4.88,5.79,-0.01,0.01,0,21.59,-1615.51,642.21,9708.85,1755696284,14:24:44
1074929,75,100,100,3,-6.3,4.92,5.83,-0.01,0.01,0,21.59,-1615.64,642.31,9708.97,1755696284,14:24:44
1074952,75,100,100,3,-6.25,4.89,5.78,-0.04,0,0.01,21.61,-1615.79,642.42,9709.11,1755696285,14:24:44
1074974,75,100,100,3,-6.27,4.84,5.72,-0.03,0.01,0,21.6,-1615.92,642.53,9709.23,1755696285,14:24:44
1074995,75,100,99,3,-6.28,4.87,5.76,-0.01,0.02,-0.01,21.6,-1616.05,642.63,9709.35,1755696285,14:24:45
1075017,75,100,99,3,-6.31,4.89,5.84,-0.01,0.01,0,21.6,-1616.19,642.74,9709.48,1755696285,14:24:45
1075038,75,100,99,3,-6.28,4.88,5.87,-0.03,0,0.01,21.59,-1616.33,642.84,9709.6,1755696285,14:24:45
1075059,75,100,99,3,-6.28,4.89,5.8,-0.02,0,0,21.6,-1616.46,642.94,9709.73,1755696285,14:24:45
1075080,75,100,99,3,-6.26,4.92,5.8,-0.01,0.01,0,21.59,-1616.59,643.05,9709.85,1755696285,14:24:45
1075101,75,100,99,3,-6.29,4.92,5.8,-0.02,0,0.01,21.6,-1616.72,643.15,9709.97,1755696286,14:24:45
1075122,75,100,99,3,-6.3,4.91,5.79,-0.02,-0.02,0.01,21.6,-1616.85,643.25,9710.09,1755696286,14:24:45
1075143,75,100,99,3,-6.29,4.91,5.76,-0.03,-0.01,0,21.59,-1616.99,643.36,9710.21,1755696286,14:24:45
1075165,75,100,99,3,-6.3,4.92,5.77,-0.03,0.02,0.01,21.58,-1617.12,643.46,9710.34,1755696286,14:24:46
1075186,75,100,99,3,-6.29,4.88,5.81,-0.03,0.02,0,21.59,-1617.26,643.57,9710.46,1755696286,14:24:46
1075207,75,100,99,3,-6.28,4.88,5.75,-0.04,0,0,21.6,-1617.39,643.67,9710.58,1755696287,14:24:46
1075228,75,100,99,3,-6.27,4.89,5.74,-0.03,0.02,0,21.62,-1617.52,643.77,9710.7,1755696287,14:24:46
1075250,75,100,99,3,-6.27,4.87,5.87,-0.03,0.03,0.01,21.59,-1617.66,643.88,9710.83,1755696287,14:24:46
1075273,75,100,99,3,-6.27,4.87,5.81,-0.04,0.01,0,21.59,-1617.8,643.99,9710.97,1755696289,14:24:48
1075294,75,100,99,3,-6.26,4.89,5.79,-0.04,0.01,0,21.6,-1617.93,644.09,9711.09,1755696289,14:24:48
1075316,75,100,99,3,-6.27,4.88,5.79,-0.03,0.02,0,21.59,-1618.07,644.2,9711.22,1755696289,14:24:48
1075337,75,100,99,3,-6.3,4.89,5.83,-0.03,0.01,0.01,21.59,-1618.2,644.3,9711.34,1755696289,14:24:48
1075360,75,100,99,3,-6.27,4.88,5.8,-0.03,0,0,21.61,-1618.35,644.42,9711.47,1755696289,14:24:48
1075382,75,100,99,3,-6.28,4.88,5.79,-0.03,0.02,0,21.6,-1618.49,644.52,9711.6,1755696289,14:24:48
1075403,75,100,99,3,-6.28,4.87,5.79,-0.03,0.02,0,21.6,-1618.62,644.63,9711.72,1755696289,14:24:49
1075424,75,100,99,3,-6.28,4.88,5.83,-0.03,0,0,21.6,-1618.75,644.73,9711.84,1755696289,14:24:49
1075445,75,100,99,3,-6.25,4.89,5.79,-0.03,0.01,0,21.58,-1618.88,644.83,9711.97,1755696289,14:24:49
1075466,75,100,99,3,-6.27,4.88,5.79,-0.03,0.02,0,21.57,-1619.01,644.93,9712.09,1755696289,14:24:49
1075488,75,100,99,3,-6.28,4.88,5.83,-0.03,0.02,0,21.59,-1619.15,645.04,9712.22,1755696289,14:24:49
1075509,75,100,99,3,-6.29,4.87,5.82,-0.03,0,0,21.59,-1619.28,645.14,9712.34,1755696289,14:24:49
1075531,75,100,99,3,-6.27,4.87,5.81,-0.03,0,0,21.6,-1619.42,645.25,9712.47,1755696290,14:24:49
1075552,75,100,99,3,-6.28,4.87,5.81,-0.03,0.01,0,21.59,-1619.55,645.35,9712.59,1755696290,14:24:49
1075573,75,100,99,3,-6.29,4.89,5.81,-0.02,0.01,0,21.6,-1619.68,645.46,9712.71,1755696290,14:24:49
1075595,75,100,99,3,-6.28,4.88,5.78,-0.02,0,0,21.59,-1619.82,645.56,9712.84,1755696290,14:24:49
1075616,75,100,99,3,-6.29,4.87,5.82,-0.02,0,0,21.6,-1619.96,645.67,9712.96,1755696290,14:24:49
1075637,75,100,99,3,-6.28,4.88,5.82,-0.02,0.01,0,21.61,-1620.09,645.77,9713.08,1755696290,14:24:49
1075659,75,100,99,3,-6.29,4.86,5.83,-0.02,0,0.01,21.62,-1620.23,645.87,9713.21,1755696290,14:24:50
1075680,75,100,99,3,-6.28,4.87,5.81,-0.02,0,0.01,21.6,-1620.36,645.98,9713.33,1755696290,14:24:50
1075701,75,100,99,3,-6.26,4.88,5.78,-0.01,0,0,21.59,-1620.49,646.08,9713.46,1755696290,14:24:50
1075722,75,100,99,3,-6.3,4.89,5.83,-0.01,0,0,21.61,-1620.62,646.18,9713.58,1755696290,14:24:50
1075743,75,100,99,3,-6.3,4.9,5.83,-0.01,0,0.01,21.6,-1620.75,646.28,9713.7,1755696290,14:24:50
1075764,75,100,99,3,-6.28,4.87,5.81,-0.02,0,0.01,21.6,-1620.89,646.39,9713.82,1755696291,14:24:50
1075786,75,100,99,3,-6.29,4.87,5.8,0,0,0.01,21.6,-1621.02,646.49,9713.95,1755696291,14:24:50
1075807,75,100,99,3,-6.3,4.92,5.84,0.01,0,0,21.61,-1621.16,646.6,9714.07,1755696291,14:24:50
1075829,75,100,99,3,-6.28,4.91,5.83,-0.01,-0.02,0.01,21.62,-1621.29,646.71,9714.2,1755696291,14:24:50
1075850,75,100,99,3,-6.25,4.88,5.77,-0.01,-0.01,0.01,21.59,-1621.43,646.81,9714.32,1755696291,14:24:50
1075872,75,100,99,3,-6.24,4.87,5.72,0,0,0.01,21.61,-1621.56,646.92,9714.45,1755696291,14:24:50
1075894,75,100,99,3,-6.29,4.88,5.79,0.01,0,0.01,21.6,-1621.7,647.02,9714.57,1755696291,14:24:50
1075915,75,100,99,3,-6.27,4.87,5.85,0,-0.01,0.01,21.61,-1621.83,647.13,9714.7,1755696291,14:24:51
1075937,75,100,99,3,-6.25,4.88,5.81,0,-0.02,0,21.59,-1621.97,647.23,9714.82,1755696291,14:24:51
1075958,75,100,99,3,-6.23,4.93,5.79,0.01,0,0,21.59,-1622.1,647.34,9714.95,1755696292,14:24:51
1075979,75,100,99,3,-6.27,4.94,5.78,0,0.01,0.01,21.59,-1622.23,647.44,9715.07,1755696292,14:24:51
1076001,75,100,99,3,-6.25,4.92,5.78,0,-0.02,0.01,21.59,-1622.37,647.55,9715.19,1755696292,14:24:51
1076022,75,100,99,3,-6.26,4.94,5.76,0,-0.01,0,21.6,-1622.5,647.65,9715.32,1755696292,14:24:51
1076044,75,100,99,3,-6.29,4.95,5.75,0,0,0.01,21.59,-1622.64,647.76,9715.44,1755696292,14:24:52
1076065,75,100,99,3,-6.28,4.93,5.82,-0.01,0,0.01,21.59,-1622.77,647.86,9715.56,1755696292,14:24:52
1076087,75,100,99,3,-6.23,4.91,5.76,-0.02,0,0,21.59,-1622.91,647.97,9715.69,1755696292,14:24:52
1076108,75,100,99,3,-6.25,4.93,5.77,-0.01,0.01,0,21.6,-1623.04,648.08,9715.81,1755696293,14:24:52
1076129,75,100,99,3,-6.24,4.96,5.8,-0.02,0.01,0.01,21.6,-1623.17,648.18,9715.93,1755696293,14:24:52
1076150,75,100,99,3,-6.22,4.94,5.78,-0.02,0,0.01,21.58,-1623.3,648.28,9716.05,1755696293,14:24:52
1076172,75,100,99,3,-6.21,4.93,5.76,-0.02,0.01,0,21.61,-1623.44,648.39,9716.18,1755696293,14:24:52
1076194,75,100,99,3,-6.24,4.92,5.75,-0.02,0.02,0,21.59,-1623.58,648.5,9716.31,1755696293,14:24:53
1076215,75,100,99,3,-6.27,4.92,5.82,-0.02,0.01,0.01,21.59,-1623.71,648.6,9716.43,1755696293,14:24:53
1076237,75,100,99,3,-6.26,4.93,5.81,-0.02,-0.01,0,21.6,-1623.85,648.71,9716.56,1755696293,14:24:53
1076259,75,100,99,3,-6.25,4.94,5.74,-0.03,0.02,0,21.61,-1623.98,648.82,9716.68,1755696293,14:24:53
1076281,75,100,99,3,-6.27,4.94,5.77,-0.02,0.03,0.01,21.62,-1624.12,648.93,9716.81,1755696293,14:24:53
1076302,75,100,99,3,-6.27,4.95,5.82,-0.02,0.01,0.01,21.6,-1624.25,649.03,9716.93,1755696293,14:24:53
1076323,75,100,99,3,-6.23,4.94,5.82,-0.02,0,0.01,21.6,-1624.38,649.14,9717.06,1755696294,14:24:53
1076344,75,100,99,3,-6.24,4.94,5.82,-0.02,0.01,0.01,21.6,-1624.51,649.24,9717.18,1755696294,14:24:53
1076366,75,100,99,3,-6.25,4.94,5.8,-0.02,0.01,0,21.6,-1624.65,649.35,9717.31,1755696294,14:24:53
1076388,75,100,99,3,-6.22,4.96,5.78,-0.02,0,0,21.6,-1624.79,649.46,9717.43,1755696294,14:24:53
1076410,75,100,99,3,-6.27,4.96,5.77,-0.02,0,0.01,21.6,-1624.93,649.57,9717.56,1755696294,14:24:54
1076431,75,100,99,3,-6.26,4.93,5.79,-0.02,0,0.01,21.6,-1625.06,649.67,9717.68,1755696294,14:24:54
1076452,75,100,99,3,-6.27,4.93,5.78,-0.02,0,0,21.59,-1625.19,649.77,9717.8,1755696294,14:24:54
1076473,75,100,99,3,-6.24,4.93,5.77,-0.02,0,0,21.58,-1625.32,649.88,9717.92,1755696294,14:24:54
1076495,0,0,0,0,-6.25,4.93,5.76,-0.01,0.01,0,21.59,-1625.46,649.99,9718.05,1755696294,14:24:54
1076536,0,0,0,0,-6.23,4.96,5.77,-0.01,0,0,21.6,-1625.71,650.19,9718.29,1755696295,14:24:54
1076577,75,100,99,3,-6.24,4.97,5.77,-0.01,0.01,0,21.59,-1625.97,650.39,9718.52,1755696295,14:24:54
1076599,75,100,99,3,-6.24,4.92,5.81,-0.01,0,0.01,21.59,-1626.11,650.5,9718.65,1755696295,14:24:54
1076620,75,100,99,3,-6.22,4.92,5.76,-0.01,-0.01,0,21.57,-1626.24,650.6,9718.77,1755696295,14:24:54
1076641,24,100,99,3,-6.23,4.97,5.79,-0.01,0,0,21.57,-1626.37,650.71,9718.89,1755696295,14:24:54
1076662,24,100,99,3,-6.26,4.92,5.77,-0.02,0,0.01,21.59,-1626.5,650.81,9719.01,1755696295,14:24:54
1076684,75,100,99,3,-6.23,4.93,5.78,0,0,0,21.6,-1626.64,650.92,9719.14,1755696295,14:24:55
1076705,75,100,99,3,-6.25,5,5.78,0,0,0,21.6,-1626.77,651.03,9719.26,1755696295,14:24:55
1076726,75,100,99,3,-6.22,4.98,5.8,-0.03,-0.01,0.01,21.59,-1626.9,651.13,9719.38,1755696295,14:24:55
1076747,75,100,99,3,-6.22,4.93,5.74,-0.03,-0.01,0.01,21.59,-1627.03,651.23,9719.5,1755696295,14:24:55
1076768,75,100,99,3,-6.24,4.96,5.72,-0.01,0,0,21.59,-1627.16,651.34,9719.62,1755696295,14:24:55
1076789,75,100,99,3,-6.25,4.98,5.77,-0.02,0.02,0,21.6,-1627.29,651.44,9719.75,1755696296,14:24:55
1076811,75,100,99,3,-6.28,4.95,5.78,-0.03,0.01,0.01,21.59,-1627.43,651.55,9719.87,1755696296,14:24:55
1076832,75,100,99,3,-6.22,4.94,5.8,-0.03,0.01,0,21.59,-1627.56,651.66,9719.99,1755696296,14:24:55
1076855,75,100,99,3,-6.21,4.97,5.73,-0.03,0.02,0,21.59,-1627.7,651.77,9720.13,1755696296,14:24:55
1076876,75,100,99,3,-6.24,4.96,5.76,-0.04,0.02,0,21.59,-1627.84,651.87,9720.25,1755696296,14:24:55
1076897,75,100,99,3,-6.24,4.95,5.77,-0.04,0,0,21.6,-1627.97,651.98,9720.37,1755696296,14:24:55
1076918,75,100,99,3,-6.28,4.96,5.78,-0.03,0.01,0,21.59,-1628.1,652.08,9720.49,1755696296,14:24:56
1076939,75,100,99,3,-6.28,4.97,5.8,-0.04,0.02,0.01,21.59,-1628.23,652.19,9720.61,1755696296,14:24:56
1076960,75,100,99,3,-6.26,4.95,5.83,-0.04,0.01,0,21.59,-1628.36,652.29,9720.73,1755696296,14:24:56
1076981,75,100,99,3,-6.25,4.96,5.77,-0.04,0.01,0,21.59,-1628.49,652.39,9720.86,1755696296,14:24:56
1077003,75,100,99,3,-6.26,4.97,5.76,-0.03,0.02,0,21.58,-1628.63,652.5,9720.98,1755696296,14:24:56
1077024,75,100,99,3,-6.23,4.95,5.83,-0.04,0.02,0,21.6,-1628.76,652.61,9721.1,1755696296,14:24:56
1077045,75,100,99,3,-6.23,4.94,5.79,-0.04,0,0,21.6,-1628.89,652.71,9721.23,1755696297,14:24:56
1077066,75,100,99,3,-6.23,4.93,5.74,-0.03,0.01,0,21.6,-1629.02,652.81,9721.35,1755696297,14:24:56
1077087,75,100,99,3,-6.26,4.92,5.8,-0.03,0.02,0,21.59,-1629.15,652.92,9721.47,1755696297,14:24:56
1077110,75,100,99,3,-6.29,4.95,5.84,-0.03,0,0,21.59,-1629.3,653.03,9721.6,1755696297,14:24:56
1077131,75,100,99,3,-6.27,4.94,5.79,-0.03,-0.01,0,21.6,-1629.43,653.13,9721.72,1755696297,14:24:56
1077152,75,100,99,3,-6.25,4.95,5.75,-0.03,0.02,0,21.58,-1629.56,653.24,9721.85,1755696297,14:24:56
1077173,75,100,99,3,-6.25,4.95,5.81,-0.03,0.03,0.01,21.59,-1629.69,653.34,9721.97,1755696297,14:24:57
1077195,75,100,99,3,-6.25,4.93,5.78,-0.03,0.01,0.01,21.6,-1629.83,653.45,9722.09,1755696297,14:24:57
1077218,75,100,99,3,-6.22,4.95,5.8,-0.03,0,0,21.6,-1629.97,653.57,9722.23,1755696298,14:24:57
1077239,75,100,99,3,-6.25,4.94,5.75,-0.04,0.02,0,21.62,-1630.11,653.67,9722.35,1755696298,14:24:57
1077260,75,100,99,3,-6.26,4.94,5.78,-0.03,0.02,0,21.57,-1630.24,653.77,9722.47,1755696298,14:24:58
1077281,75,100,99,3,-6.28,4.93,5.79,-0.03,0.01,0,21.6,-1630.37,653.88,9722.59,1755696298,14:24:58
1077302,75,100,99,3,-6.27,4.94,5.79,-0.04,0.01,0.01,21.6,-1630.5,653.98,9722.71,1755696298,14:24:58
1077324,75,100,99,3,-6.28,4.9,5.79,-0.03,0.02,0.01,21.62,-1630.64,654.09,9722.84,1755696298,14:24:58
1077346,75,100,99,3,-6.25,4.91,5.8,-0.03,0.02,0,21.6,-1630.78,654.2,9722.97,1755696298,14:24:58
1077367,75,100,99,3,-6.25,4.92,5.79,-0.04,0.01,0.01,21.59,-1630.91,654.3,9723.09,1755696299,14:24:58
1077389,75,100,99,3,-6.26,4.94,5.81,-0.03,0.02,0,21.6,-1631.05,654.41,9723.22,1755696299,14:24:58
1077410,75,100,99,3,-6.25,4.92,5.79,-0.03,0.02,0.01,21.59,-1631.18,654.51,9723.34,1755696299,14:24:59
1077431,75,100,99,3,-6.27,4.94,5.82,-0.03,0.01,0.01,21.59,-1631.31,654.61,9723.46,1755696299,14:24:59
1077452,75,100,99,3,-6.25,4.94,5.79,-0.04,0.01,0.01,21.58,-1631.44,654.72,9723.58,1755696299,14:24:59
1077473,75,100,99,3,-6.24,4.91,5.79,-0.03,0.02,0.01,21.58,-1631.57,654.82,9723.7,1755696299,14:24:59
1077494,75,100,99,3,-6.25,4.9,5.79,-0.03,0.01,0.01,21.59,-1631.7,654.92,9723.83,1755696300,14:24:59
1077516,75,100,99,3,-6.25,4.89,5.79,-0.03,0.01,0.01,21.59,-1631.84,655.03,9723.95,1755696300,14:24:59
1077537,75,100,99,3,-6.26,4.9,5.74,-0.03,0.01,0,21.59,-1631.97,655.14,9724.08,1755696300,14:25:00
1077558,75,100,99,3,-6.27,4.96,5.82,-0.02,0.01,0,21.59,-1632.1,655.24,9724.2,1755696300,14:25:00
1077579,75,100,99,3,-6.27,4.96,5.83,-0.03,0.01,0.01,21.59,-1632.23,655.34,9724.32,1755696300,14:25:00
1077600,75,100,99,3,-6.25,4.92,5.79,-0.04,0.01,0.01,21.59,-1632.37,655.45,9724.44,1755696300,14:25:00
1077622,75,100,99,3,-6.25,4.88,5.73,-0.03,0.01,0.01,21.6,-1632.5,655.55,9724.57,1755696300,14:25:00
1077643,75,100,99,3,-6.25,4.92,5.81,-0.02,0.02,0,21.6,-1632.63,655.66,9724.69,1755696300,14:25:00
1077664,75,100,99,3,-6.28,4.91,5.82,-0.03,0.01,0.01,21.6,-1632.77,655.76,9724.81,1755696300,14:25:00
1077686,75,100,99,3,-6.27,4.93,5.8,-0.03,0,0.01,21.58,-1632.9,655.87,9724.94,1755696301,14:25:00
1077707,75,100,99,3,-6.25,4.93,5.83,-0.03,0,0,21.6,-1633.04,655.97,9725.06,1755696301,14:25:00
1077729,75,100,99,3,-6.24,4.95,5.81,-0.02,0.01,0.01,21.6,-1633.17,656.08,9725.19,1755696301,14:25:00
1077750,75,100,99,3,-6.25,4.94,5.78,-0.03,0.01,0.01,21.61,-1633.3,656.19,9725.31,1755696301,14:25:00
1077771,75,100,99,3,-6.24,4.95,5.8,-0.03,0,0.01,21.61,-1633.44,656.29,9725.43,1755696301,14:25:01
1077792,75,100,99,3,-6.26,4.93,5.75,-0.04,0,0.01,21.61,-1633.57,656.39,9725.55,1755696301,14:25:01
1077813,75,100,99,3,-6.29,4.89,5.78,-0.03,0.01,0.01,21.58,-1633.7,656.5,9725.67,1755696301,14:25:01
1077835,75,100,99,3,-6.27,4.89,5.81,-0.03,0.01,0,21.6,-1633.84,656.6,9725.8,1755696301,14:25:01
1077856,75,100,99,3,-6.28,4.92,5.77,-0.03,0.01,0.01,21.62,-1633.97,656.71,9725.92,1755696301,14:25:01
1077878,75,100,99,3,-6.27,4.91,5.79,-0.03,0.02,0.01,21.61,-1634.11,656.81,9726.05,1755696301,14:25:01
1077899,75,100,99,3,-6.26,4.92,5.81,-0.03,0.02,0.01,21.6,-1634.24,656.92,9726.17,1755696302,14:25:01
1077920,75,100,99,3,-6.23,4.93,5.82,-0.04,0.01,0,21.59,-1634.37,657.02,9726.29,1755696302,14:25:01
1077941,75,100,99,3,-6.26,4.91,5.72,-0.03,0.01,0,21.6,-1634.5,657.12,9726.42,1755696302,14:25:01
1077963,75,100,99,3,-6.27,4.92,5.81,-0.03,0.03,0.01,21.6,-1634.64,657.23,9726.54,1755696302,14:25:01
1077984,75,100,99,3,-6.28,4.91,5.87,-0.03,0.01,0.01,21.6,-1634.77,657.34,9726.67,1755696302,14:25:02
1078005,75,100,99,3,-6.25,4.9,5.78,-0.04,-0.01,0.01,21.6,-1634.9,657.44,9726.79,1755696302,14:25:02
1078027,75,100,99,3,-6.24,4.91,5.76,-0.03,0.02,0.01,21.58,-1635.04,657.55,9726.92,1755696302,14:25:02
1078048,73,100,99,3,-6.27,4.9,5.81,-0.03,0.02,0.01,21.61,-1635.17,657.65,9727.04,1755696302,14:25:02
1078069,73,100,99,3,-6.26,4.91,5.8,-0.03,0.01,0,21.62,-1635.3,657.75,9727.16,1755696302,14:25:02
1078090,73,100,99,3,-6.23,4.91,5.79,-0.03,0.01,0.01,21.6,-1635.43,657.86,9727.28,1755696303,14:25:02
1078111,73,100,99,3,-6.24,4.91,5.77,-0.03,0.02,0,21.62,-1635.56,657.96,9727.4,1755696303,14:25:02
1078134,73,100,99,3,-6.27,4.88,5.8,-0.02,0.01,0,21.59,-1635.71,658.07,9727.53,1755696303,14:25:02
1078155,75,100,99,3,-6.25,4.92,5.8,-0.03,0,0,21.59,-1635.84,658.18,9727.66,1755696303,14:25:02
1078176,75,100,99,3,-6.27,4.93,5.8,-0.02,0.01,0,21.61,-1635.97,658.28,9727.78,1755696303,14:25:02
1078197,73,100,99,3,-6.26,4.91,5.78,-0.03,0.01,0.01,21.61,-1636.1,658.38,9727.9,1755696303,14:25:02
1078219,73,100,99,3,-6.27,4.93,5.77,-0.03,0.01,0.01,21.61,-1636.24,658.49,9728.03,1755696303,14:25:03
1078242,73,100,99,3,-6.25,4.91,5.79,-0.03,0.01,0.01,21.6,-1636.38,658.6,9728.16,1755696303,14:25:03
1078263,73,100,99,3,-6.27,4.9,5.79,-0.03,0.01,0.01,21.6,-1636.52,658.71,9728.28,1755696303,14:25:03
1078285,73,100,99,3,-6.27,4.9,5.76,-0.02,0.01,0.01,21.61,-1636.65,658.81,9728.41,1755696303,14:25:03
1078306,73,100,99,3,-6.28,4.92,5.8,-0.02,0.01,0.01,21.62,-1636.79,658.92,9728.53,1755696303,14:25:03
1078328,73,100,99,3,-6.26,4.91,5.78,-0.02,0.01,0,21.6,-1636.92,659.03,9728.66,1755696303,14:25:03
1078349,73,100,99,3,-6.24,4.93,5.82,-0.03,0.01,0.01,21.6,-1637.05,659.13,9728.78,1755696304,14:25:03
1078370,73,100,99,3,-6.23,4.91,5.77,-0.02,0.01,0.01,21.61,-1637.19,659.23,9728.9,1755696304,14:25:03
1078391,73,100,99,3,-6.27,4.92,5.82,-0.02,0.01,0,21.61,-1637.32,659.34,9729.02,1755696304,14:25:03
1078412,73,100,99,3,-6.27,4.95,5.84,-0.02,0,0.01,21.6,-1637.45,659.44,9729.15,1755696304,14:25:03
1078433,73,100,99,3,-6.25,4.92,5.78,-0.02,0,0,21.61,-1637.58,659.54,9729.27,1755696304,14:25:04
1078454,73,100,99,3,-6.28,4.93,5.76,-0.02,0.01,0,21.6,-1637.71,659.65,9729.39,1755696304,14:25:04
1078475,73,100,99,3,-6.26,4.93,5.78,-0.02,0.01,0,21.6,-1637.84,659.75,9729.51,1755696304,14:25:04
1078496,73,100,99,3,-6.24,4.93,5.77,-0.03,0,0.01,21.6,-1637.97,659.85,9729.63,1755696304,14:25:04
1078517,73,100,99,3,-6.3,4.91,5.74,-0.02,0.01,0,21.6,-1638.11,659.96,9729.75,1755696304,14:25:04
1078539,73,100,99,3,-6.26,4.94,5.8,-0.01,0.01,0,21.6,-1638.24,660.06,9729.88,1755696304,14:25:04
1078560,73,100,99,3,-6.28,4.94,5.83,-0.02,0.01,0.01,21.61,-1638.38,660.17,9730,1755696305,14:25:04
1078581,73,100,99,3,-6.28,4.92,5.83,-0.03,0,0.01,21.63,-1638.51,660.27,9730.12,1755696305,14:25:04
1078602,73,100,99,3,-6.27,4.92,5.74,-0.02,0,0,21.6,-1638.64,660.38,9730.24,1755696305,14:25:04
1078623,73,100,99,3,-6.24,4.94,5.8,-0.02,0.02,0,21.6,-1638.77,660.48,9730.37,1755696305,14:25:04
1078645,73,100,99,3,-6.26,4.91,5.81,-0.03,0,0.01,21.6,-1638.91,660.59,9730.49,1755696305,14:25:04
1078666,73,100,99,3,-6.24,4.92,5.76,-0.02,0,0,21.59,-1639.04,660.69,9730.61,1755696305,14:25:04
1078687,73,100,99,3,-6.26,4.92,5.77,-0.02,0.01,0.01,21.62,-1639.17,660.79,9730.74,1755696305,14:25:05
1078708,73,100,99,3,-6.28,4.9,5.82,-0.02,0.02,0.01,21.61,-1639.3,660.9,9730.86,1755696305,14:25:05
1078730,73,100,99,3,-6.26,4.93,5.83,-0.02,0,0,21.61,-1639.44,661.01,9730.99,1755696305,14:25:05
1078751,73,100,99,3,-6.28,4.93,5.8,-0.02,0.01,0,21.58,-1639.57,661.11,9731.11,1755696305,14:25:05
1078773,73,100,99,3,-6.26,4.95,5.76,-0.02,0.02,0.01,21.6,-1639.71,661.22,9731.23,1755696306,14:25:05
1078794,73,100,99,3,-6.25,4.96,5.81,-0.03,0,0.01,21.59,-1639.84,661.32,9731.36,1755696306,14:25:05
1078815,73,100,99,3,-6.22,4.94,5.75,-0.03,-0.01,0.01,21.59,-1639.97,661.43,9731.48,1755696306,14:25:05
1078838,73,100,99,3,-6.23,4.94,5.73,-0.02,0.01,0,21.61,-1640.12,661.54,9731.61,1755696306,14:25:05
1078859,73,100,99,3,-6.28,4.9,5.81,-0.02,0.01,0,21.6,-1640.25,661.64,9731.73,1755696306,14:25:05
1078881,73,100,99,3,-6.27,4.91,5.82,-0.03,-0.01,0,21.6,-1640.39,661.75,9731.86,1755696306,14:25:05
1078902,73,100,99,3,-6.28,4.92,5.77,-0.03,0,0,21.6,-1640.52,661.85,9731.98,1755696306,14:25:06
1078923,73,100,99,3,-6.26,4.95,5.73,-0.03,0.03,0,21.59,-1640.65,661.96,9732.1,1755696306,14:25:06
1078946,73,100,99,3,-6.25,4.92,5.78,-0.03,0.03,0.01,21.61,-1640.79,662.07,9732.23,1755696306,14:25:06
1078968,73,100,99,3,-6.26,4.89,5.79,-0.02,0.01,0,21.61,-1640.93,662.18,9732.36,1755696306,14:25:06
1078989,73,100,99,3,-6.23,4.91,5.83,-0.02,0.01,0,21.62,-1641.06,662.28,9732.48,1755696306,14:25:06
1079010,73,100,99,3,-6.26,4.93,5.84,-0.01,0.02,0,21.6,-1641.19,662.38,9732.6,1755696307,14:25:06
1079031,73,100,99,3,-6.27,4.92,5.84,-0.02,0.01,0,21.6,-1641.32,662.49,9732.73,1755696307,14:25:06
1079053,73,100,99,3,-6.25,4.96,5.78,-0.01,0,0,21.61,-1641.46,662.6,9732.86,1755696307,14:25:06
1079074,73,100,99,3,-6.28,4.94,5.77,-0.01,0,0,21.62,-1641.59,662.7,9732.98,1755696307,14:25:06
1079095,73,100,99,3,-6.24,4.94,5.77,-0.01,0,0,21.59,-1641.73,662.8,9733.1,1755696307,14:25:06
1079116,73,100,99,3,-6.25,4.92,5.74,-0.01,-0.01,0,21.61,-1641.86,662.91,9733.22,1755696307,14:25:07
1079137,73,100,99,3,-6.25,4.91,5.74,-0.01,0,0.01,21.6,-1641.99,663.01,9733.34,1755696307,14:25:07
1079159,73,100,99,3,-6.33,4.92,5.75,-0.01,0.01,0,21.61,-1642.13,663.12,9733.46,1755696307,14:25:07
1079180,73,100,99,3,-6.26,4.96,5.77,0,0.01,0,21.61,-1642.26,663.22,9733.59,1755696307,14:25:07
1079201,73,100,99,3,-6.26,4.96,5.79,-0.01,0.01,0,21.62,-1642.39,663.33,9733.71,1755696308,14:25:07
1079222,73,100,99,3,-6.25,4.96,5.77,-0.01,0.02,0,21.6,-1642.52,663.43,9733.83,1755696308,14:25:07
1079244,73,100,99,3,-6.25,4.95,5.77,-0.01,0.01,0,21.62,-1642.66,663.54,9733.96,1755696308,14:25:07
1079266,73,100,99,3,-6.27,4.94,5.79,0,0,0,21.61,-1642.8,663.65,9734.08,1755696308,14:25:07
1079287,73,100,99,3,-6.3,4.97,5.82,0,0,0.01,21.59,-1642.93,663.75,9734.2,1755696308,14:25:08
1079309,73,100,99,3,-6.32,4.93,5.87,0.02,0,0.01,21.61,-1643.07,663.86,9734.33,1755696308,14:25:08
1079330,73,100,99,3,-6.29,4.92,5.91,0.02,-0.02,0.02,21.6,-1643.2,663.96,9734.46,1755696308,14:25:08
1079352,73,100,99,3,-6.26,4.93,5.87,0.02,-0.05,0.01,21.61,-1643.34,664.07,9734.59,1755696308,14:25:08
1079374,73,100,99,3,-6.12,4.95,5.78,0.03,-0.06,0.01,21.61,-1643.47,664.18,9734.71,1755696308,14:25:08
1079395,73,100,99,3,-6.16,5.04,5.66,0.01,-0.09,0.01,21.61,-1643.6,664.29,9734.83,1755696308,14:25:08
1079417,73,100,99,3,-6.18,5.03,5.55,-0.02,-0.08,0.02,21.61,-1643.74,664.4,9734.96,1755696308,14:25:08
1079438,73,100,99,3,-6.25,4.99,5.53,-0.01,-0.04,0.02,21.62,-1643.87,664.5,9735.07,1755696309,14:25:08
1079459,73,100,99,3,-6.27,4.94,5.64,-0.01,0.02,0.01,21.62,-1644,664.61,9735.19,1755696309,14:25:08
1079480,73,100,99,3,-6.28,4.92,5.76,-0.02,0.05,0.01,21.6,-1644.13,664.71,9735.31,1755696309,14:25:08
1079502,73,100,99,3,-6.24,4.92,5.81,-0.03,0.04,0,21.61,-1644.27,664.82,9735.44,1755696309,14:25:08
1079523,73,100,99,3,-6.21,4.94,5.81,-0.03,0.04,0,21.6,-1644.4,664.92,9735.56,1755696309,14:25:09
1079546,73,100,99,3,-6.19,4.98,5.86,-0.03,0.04,0,21.61,-1644.54,665.04,9735.69,1755696309,14:25:09
1079567,73,100,99,3,-6.16,5.05,5.86,-0.03,0.01,0,21.62,-1644.67,665.14,9735.82,1755696309,14:25:09
1079588,73,100,99,3,-6.2,5.04,5.82,-0.03,0.01,0.01,21.62,-1644.8,665.25,9735.94,1755696309,14:25:09
1079609,73,100,99,3,-6.22,5,5.78,-0.03,0.01,0.01,21.6,-1644.93,665.35,9736.06,1755696309,14:25:09
1079630,73,100,99,3,-6.21,4.99,5.76,-0.03,0,0.01,21.6,-1645.06,665.46,9736.18,1755696309,14:25:09
1079651,73,100,99,3,-6.2,4.98,5.79,-0.03,-0.01,0,21.6,-1645.19,665.56,9736.3,1755696309,14:25:09
1079673,73,100,99,3,-6.22,4.98,5.79,-0.02,0,0,21.62,-1645.33,665.67,9736.43,1755696310,14:25:09
1079694,73,100,99,3,-6.22,4.94,5.78,-0.02,0,0,21.61,-1645.46,665.78,9736.55,1755696310,14:25:09
1079715,73,100,99,3,-6.21,4.96,5.75,-0.03,-0.01,0,21.61,-1645.59,665.88,9736.67,1755696310,14:25:09
1079736,73,100,99,3,-6.22,4.96,5.73,-0.02,0.01,0,21.62,-1645.72,665.98,9736.79,1755696310,14:25:09
1079757,0,0,0,0,-6.24,4.98,5.83,-0.02,0.01,0,21.6,-1645.85,666.09,9736.92,1755696310,14:25:10
1079798,73,100,99,3,-6.23,4.96,5.8,-0.02,0,0,21.62,-1646.11,666.29,9737.15,1755696310,14:25:10
1079819,73,100,99,3,-6.19,4.99,5.75,-0.02,0.01,0,21.59,-1646.24,666.4,9737.27,1755696310,14:25:10
1079840,73,100,99,3,-6.21,4.99,5.75,-0.01,0.01,0,21.62,-1646.37,666.5,9737.4,1755696310,14:25:10
1079861,73,100,99,3,-6.24,4.97,5.8,-0.01,0.01,0,21.61,-1646.5,666.61,9737.52,1755696310,14:25:10
1079883,73,100,99,3,-6.22,4.93,5.82,-0.01,0,0.01,21.59,-1646.64,666.72,9737.64,1755696310,14:25:10
1079904,73,100,99,3,-6.21,4.94,5.83,0,0,0,21.61,-1646.77,666.82,9737.77,1755696311,14:25:10
1079926,72,100,99,3,-6.22,5.01,5.85,0,-0.01,0,21.62,-1646.9,666.93,9737.9,1755696311,14:25:10
1079947,72,100,99,3,-6.21,5.02,5.79,0,-0.03,0,21.59,-1647.04,667.03,9738.02,1755696311,14:25:10
1079968,72,100,99,3,-6.2,5.04,5.75,-0.01,-0.03,0,21.6,-1647.17,667.14,9738.14,1755696311,14:25:10
1079989,72,100,99,3,-6.19,5.02,5.74,-0.01,-0.02,0,21.6,-1647.3,667.24,9738.26,1755696311,14:25:10
1080010,72,100,99,3,-6.19,5.02,5.71,-0.01,-0.01,0,21.6,-1647.43,667.35,9738.38,1755696311,14:25:11
1080031,72,100,99,3,-6.24,4.99,5.71,-0.02,0.01,0,21.62,-1647.56,667.46,9738.5,1755696311,14:25:11
1080052,72,100,99,3,-6.24,4.98,5.75,-0.03,0.02,0,21.62,-1647.69,667.56,9738.62,1755696311,14:25:11
1080074,72,100,99,3,-6.2,4.97,5.77,-0.03,0.01,0,21.61,-1647.82,667.67,9738.75,1755696311,14:25:11
1080095,72,100,99,3,-6.18,4.99,5.76,-0.03,0.02,0,21.61,-1647.95,667.77,9738.87,1755696311,14:25:11
1080116,72,100,99,3,-6.21,4.99,5.82,-0.04,0.03,0,21.6,-1648.08,667.88,9738.99,1755696312,14:25:11
1080138,72,100,99,3,-6.22,4.99,5.83,-0.03,0.01,0,21.59,-1648.22,667.99,9739.12,1755696312,14:25:11
1080159,72,100,99,3,-6.21,5,5.78,-0.04,0.01,0,21.6,-1648.35,668.09,9739.24,1755696312,14:25:11
1080181,72,100,99,3,-6.2,4.99,5.76,-0.03,0.01,0,21.62,-1648.49,668.2,9739.37,1755696312,14:25:12
1080202,72,100,99,3,-6.2,4.98,5.74,-0.03,0.01,0,21.63,-1648.62,668.31,9739.49,1755696312,14:25:12
1080223,72,100,99,3,-6.22,4.98,5.78,-0.03,0.02,0,21.62,-1648.75,668.41,9739.61,1755696312,14:25:12
1080245,72,100,99,3,-6.23,4.97,5.81,-0.03,0,0,21.61,-1648.89,668.52,9739.74,1755696312,14:25:12
1080266,72,100,99,3,-6.2,4.98,5.79,-0.03,0,0,21.63,-1649.02,668.63,9739.86,1755696312,14:25:12
1080287,72,100,99,3,-6.21,4.97,5.76,-0.04,0.01,0,21.63,-1649.15,668.73,9739.98,1755696313,14:25:12
1080308,72,100,99,3,-6.22,5,5.8,-0.03,0.01,0,21.62,-1649.28,668.84,9740.1,1755696313,14:25:12
1080329,72,100,99,3,-6.23,4.99,5.78,-0.03,0.01,0,21.61,-1649.41,668.94,9740.22,1755696313,14:25:12
1080350,72,100,99,3,-6.21,4.96,5.78,-0.03,0,0,21.61,-1649.54,669.05,9740.34,1755696313,14:25:13
1080371,72,100,99,3,-6.23,4.98,5.77,-0.04,0.01,-0.01,21.61,-1649.67,669.15,9740.46,1755696313,14:25:13
1080393,72,100,99,3,-6.23,4.94,5.78,-0.04,0.01,0,21.62,-1649.81,669.26,9740.59,1755696313,14:25:13
1080414,72,100,99,3,-6.22,4.95,5.8,-0.04,0.01,0,21.63,-1649.94,669.36,9740.71,1755696313,14:25:13
1080435,72,100,99,3,-6.22,4.96,5.8,-0.04,0.01,-0.01,21.62,-1650.07,669.47,9740.84,1755696313,14:25:13
1080457,72,100,99,3,-6.23,4.97,5.79,-0.05,0.02,0,21.62,-1650.2,669.58,9740.96,1755696314,14:25:13
1080479,72,100,99,3,-6.26,4.95,5.81,-0.04,0.02,0,21.61,-1650.34,669.69,9741.09,1755696314,14:25:13
1080500,72,100,99,3,-6.26,4.94,5.86,-0.04,0.01,0,21.62,-1650.47,669.79,9741.21,1755696314,14:25:13
1080522,72,100,99,3,-6.23,4.95,5.82,-0.04,0.01,0,21.61,-1650.61,669.9,9741.34,1755696314,14:25:13
1080543,72,100,99,3,-6.22,4.96,5.81,-0.04,0.02,0,21.62,-1650.74,670,9741.46,1755696314,14:25:14
1080565,72,100,99,3,-6.22,4.94,5.79,-0.03,0.01,0,21.61,-1650.88,670.11,9741.59,1755696314,14:25:14
1080586,72,100,99,3,-6.22,4.95,5.78,-0.03,0.01,0,21.62,-1651.01,670.21,9741.71,1755696314,14:25:14
1080608,72,100,99,3,-6.22,4.91,5.77,-0.04,0.01,0,21.63,-1651.15,670.32,9741.84,1755696314,14:25:14
1080629,72,100,99,3,-6.26,4.92,5.79,-0.03,0.01,0,21.62,-1651.28,670.43,9741.96,1755696314,14:25:14
1080650,72,100,99,3,-6.27,4.92,5.8,-0.04,0.01,0,21.62,-1651.41,670.53,9742.08,1755696315,14:25:14
1080671,72,100,99,3,-6.25,4.93,5.81,-0.04,0.02,0,21.61,-1651.54,670.63,9742.21,1755696315,14:25:14
1080694,72,100,99,3,-6.26,4.93,5.78,-0.04,0.02,0,21.62,-1651.68,670.75,9742.34,1755696315,14:25:14
1080715,72,100,99,3,-6.23,4.92,5.81,-0.04,0.03,0,21.62,-1651.81,670.85,9742.46,1755696315,14:25:14
1080736,72,100,99,3,-6.24,4.93,5.83,-0.03,0.02,0,21.62,-1651.95,670.95,9742.58,1755696315,14:25:14
1080758,72,100,99,3,-6.28,4.95,5.85,-0.03,0.02,0,21.62,-1652.08,671.06,9742.71,1755696315,14:25:14
1080779,72,100,99,3,-6.34,5.02,5.9,-0.04,0.03,-0.01,21.61,-1652.22,671.17,9742.84,1755696315,14:25:15
1080800,72,100,99,3,-6.41,5.12,5.95,-0.04,0.05,-0.02,21.62,-1652.35,671.27,9742.96,1755696315,14:25:15
1080822,72,100,99,3,-6.47,5.26,5.96,-0.05,0.1,-0.06,21.63,-1652.49,671.39,9743.09,1755696315,14:25:15
1080843,72,100,99,3,-6.61,5.34,6.01,-0.12,0.24,-0.13,21.62,-1652.63,671.5,9743.22,1755696315,14:25:15
1080865,72,100,99,3,-6.76,5.22,6.07,-0.15,0.41,-0.18,21.61,-1652.78,671.61,9743.35,1755696315,14:25:15
1080886,72,100,99,3,-7.24,5.48,6.3,-0.32,0.58,-0.3,21.61,-1652.92,671.73,9743.48,1755696316,14:25:15
1080908,72,100,99,3,-7.7,5.49,6.43,-0.42,0.8,-0.41,21.59,-1653.09,671.85,9743.62,1755696316,14:25:15
1080929,72,100,99,3,-7.98,5.45,6.02,-0.59,1.08,-0.67,21.62,-1653.25,671.96,9743.75,1755696316,14:25:15
1080950,72,100,99,3,-8.36,5.07,5.34,-0.75,1.27,-0.73,21.6,-1653.42,672.07,9743.87,1755696316,14:25:15
1080972,72,100,99,3,-8.74,4.73,5.23,-0.84,1.23,-0.69,21.61,-1653.61,672.18,9743.99,1755696316,14:25:16
1080993,72,100,99,3,-8.01,4.19,5.06,-0.89,1.12,-0.8,21.62,-1653.79,672.27,9744.09,1755696316,14:25:16
1081014,72,100,99,3,-8.72,3.68,4.34,-1.24,0.93,-0.72,21.63,-1653.96,672.36,9744.19,1755696316,14:25:16
1081035,72,100,99,3,-8.93,3.14,4,-0.97,0.86,-0.59,21.63,-1654.15,672.43,9744.28,1755696316,14:25:16
1081056,72,100,99,3,-8.56,2.67,4.26,-0.4,0.71,-0.77,21.62,-1654.33,672.49,9744.37,1755696316,14:25:16
1081077,72,100,99,3,-8.44,2.47,4.63,0.14,0.36,-1.2,21.62,-1654.51,672.54,9744.46,1755696316,14:25:16
1081100,72,100,99,3,-7.96,2.51,4.78,0.09,-0.03,-1.34,21.61,-1654.7,672.6,9744.57,1755696317,14:25:16
1081121,72,100,99,3,-7.74,2.62,4.54,-0.3,-0.14,-1.17,21.59,-1654.86,672.65,9744.67,1755696317,14:25:16
1081142,72,100,99,3,-7.13,2.24,4.09,-0.74,0.01,-0.88,21.61,-1655.02,672.71,9744.76,1755696317,14:25:16
1081164,72,100,99,3,-7.11,1.59,3.61,-0.91,0.06,-0.46,21.61,-1655.18,672.75,9744.84,1755696317,14:25:16
1081185,72,100,99,3,-7.01,1.25,3.54,-0.48,0.09,-0.15,21.62,-1655.32,672.78,9744.92,1755696317,14:25:17
1081207,72,100,99,3,-7.5,1.03,3.75,0.17,0.27,-0.16,21.61,-1655.48,672.8,9745,1755696317,14:25:17
1081229,72,100,99,3,-7.6,1,4.14,0.72,0.67,-0.51,21.61,-1655.65,672.82,9745.08,1755696317,14:25:17
1081251,69,100,99,3,-7.47,1.21,4.22,1.16,1,-0.87,21.6,-1655.82,672.85,9745.18,1755696317,14:25:17
1081272,69,100,99,3,-7.18,1.64,4.41,1.69,1.07,-0.98,21.62,-1655.97,672.88,9745.27,1755696318,14:25:17
1081293,69,100,99,3,-7.41,1.98,4.42,1.83,0.83,-0.9,21.62,-1656.12,672.92,9745.36,1755696318,14:25:17
1081314,69,100,99,3,-7.86,2.53,4.75,1.44,0.51,-0.54,21.62,-1656.28,672.96,9745.46,1755696318,14:25:17
1081335,69,100,99,3,-7.08,2.45,4.7,0.68,0.05,-0.28,21.61,-1656.44,673.02,9745.56,1755696318,14:25:17
1081356,69,100,99,3,-7.46,2.81,4.48,0.2,-0.39,-0.03,21.61,-1656.59,673.07,9745.65,1755696318,14:25:17
1081377,69,100,99,3,-7.69,2.92,4.08,-0.16,-0.29,0.09,21.62,-1656.75,673.13,9745.74,1755696318,14:25:18
1081398,69,100,99,3,-7.95,2.8,3.8,-0.09,0.05,0.22,21.63,-1656.92,673.19,9745.83,1755696318,14:25:18
1081420,69,100,99,3,-7.79,2.88,4.07,0.37,0.57,0.16,21.62,-1657.09,673.25,9745.91,1755696318,14:25:18
1081441,69,100,99,3,-7.89,3.03,4.18,0.49,1.08,-0.05,21.61,-1657.25,673.32,9746,1755696318,14:25:18
1081462,69,100,99,3,-8.81,3.13,4.03,0.24,1.32,0.02,21.63,-1657.43,673.38,9746.09,1755696319,14:25:18
1081484,69,100,99,3,-9.85,2.86,3.8,-0.15,1.11,0.34,21.62,-1657.63,673.45,9746.17,1755696319,14:25:18
1081505,69,100,99,3,-9.33,2.4,3.86,-0.51,0.71,0.43,21.6,-1657.84,673.5,9746.25,1755696319,14:25:19
1081527,69,100,99,3,-8.95,2.21,3.46,-0.9,0.31,0.28,21.62,-1658.04,673.55,9746.33,1755696319,14:25:19
1081548,69,100,99,3,-9.2,2.33,2.92,-1.11,0.12,0.3,21.62,-1658.23,673.6,9746.4,1755696319,14:25:19
1081570,69,100,99,3,-9.04,2.21,2.69,-1.05,0.05,0.45,21.61,-1658.43,673.65,9746.46,1755696319,14:25:19
1081591,69,100,99,3,-8.75,1.95,2.67,-0.81,0.08,0.47,21.6,-1658.61,673.69,9746.52,1755696320,14:25:19
1081612,69,100,99,3,-8.93,1.9,2.61,-0.31,0.12,0.31,21.61,-1658.8,673.74,9746.57,1755696320,14:25:19
1081634,69,100,99,3,-8.88,2.16,2.41,-0.02,0.11,0,21.63,-1659,673.78,9746.63,1755696320,14:25:19
1081655,69,100,99,3,-8.99,2.34,2.59,0.2,0.19,-0.14,21.62,-1659.18,673.83,9746.68,1755696320,14:25:19
1081677,69,100,99,3,-8.7,2.59,2.93,0.38,0.58,-0.22,21.62,-1659.38,673.88,9746.74,1755696320,14:25:19
1081698,69,100,99,3,-8.76,2.56,2.95,0.5,0.76,-0.2,21.61,-1659.56,673.94,9746.8,1755696320,14:25:19
1081720,69,100,99,3,-8.98,2.64,3.08,0.55,0.66,-0.11,21.61,-1659.76,673.99,9746.87,1755696320,14:25:20
1081741,69,100,99,3,-9.1,2.6,3.1,0.26,0.36,-0.05,21.63,-1659.95,674.05,9746.93,1755696320,14:25:20
1081762,69,100,99,3,-8.69,2.65,3.2,-0.17,0.05,0,21.62,-1660.13,674.1,9747,1755696320,14:25:20
1081785,69,100,99,3,-8.86,2.74,3.08,-0.54,0.04,-0.01,21.62,-1660.34,674.16,9747.07,1755696320,14:25:20
1081807,69,100,99,3,-8.95,2.67,2.7,-0.41,0.02,0.1,21.63,-1660.53,674.22,9747.14,1755696320,14:25:20
1081828,69,100,99,3,-8.99,2.47,2.68,-0.35,-0.07,0.21,21.63,-1660.72,674.28,9747.19,1755696321,14:25:20
1081849,69,100,99,3,-8.94,2.37,2.54,-0.29,-0.16,0.15,21.62,-1660.91,674.33,9747.25,1755696321,14:25:20
1081871,69,100,99,3,-8.95,2.4,2.53,-0.19,-0.28,0.08,21.63,-1661.1,674.38,9747.3,1755696321,14:25:20
1081892,69,100,99,3,-9.04,2.48,2.49,-0.13,-0.21,0.01,21.61,-1661.29,674.43,9747.36,1755696321,14:25:20
1081915,69,100,99,3,-8.65,2.4,2.56,-0.13,0,0.06,21.62,-1661.5,674.49,9747.42,1755696321,14:25:20
1081936,69,100,99,3,-8.86,2.29,2.41,-0.11,0.08,0.08,21.6,-1661.68,674.54,9747.47,1755696321,14:25:20
1081958,69,100,99,3,-9.05,2.28,2.45,-0.02,0.06,0.09,21.61,-1661.88,674.59,9747.52,1755696321,14:25:21
1081979,69,100,99,3,-9.26,2.3,2.49,-0.03,0.03,0.02,21.64,-1662.07,674.64,9747.57,1755696322,14:25:21
1082000,69,100,99,3,-9.11,2.3,2.64,0.02,0.08,-0.03,21.64,-1662.26,674.68,9747.63,1755696322,14:25:21
1082022,69,100,99,3,-8.95,2.3,2.61,-0.04,0.05,-0.08,21.62,-1662.46,674.74,9747.68,1755696322,14:25:22
1082043,69,100,99,3,-8.82,2.37,2.6,-0.06,0,-0.03,21.61,-1662.65,674.78,9747.74,1755696322,14:25:22
1082064,69,100,99,3,-8.9,2.32,2.6,-0.11,-0.02,0.04,21.63,-1662.83,674.83,9747.79,1755696322,14:25:22
1082085,69,100,99,3,-8.94,2.18,2.75,-0.05,0.04,0.05,21.62,-1663.02,674.88,9747.85,1755696322,14:25:22
1082106,69,100,99,3,-8.91,2.2,2.86,0.08,0.12,-0.07,21.61,-1663.21,674.93,9747.91,1755696322,14:25:22
1082128,69,100,99,3,-8.86,2.33,2.82,0.09,0.07,-0.16,21.62,-1663.4,674.98,9747.97,1755696322,14:25:22
1082149,69,100,99,3,-8.96,2.49,2.83,-0.03,0.02,-0.11,21.61,-1663.59,675.03,9748.03,1755696322,14:25:22
1082170,69,100,99,3,-9.13,2.49,2.76,-0.17,0,0.02,21.63,-1663.78,675.08,9748.09,1755696323,14:25:22
1082191,69,100,99,3,-9.16,2.38,2.76,-0.2,-0.02,0.07,21.62,-1663.97,675.13,9748.15,1755696323,14:25:22
1082213,69,100,99,3,-9.02,2.22,2.67,-0.23,-0.04,-0.02,21.63,-1664.17,675.18,9748.21,1755696323,14:25:22
1082235,69,100,99,3,-8.94,2.3,2.64,-0.16,-0.07,-0.09,21.61,-1664.37,675.23,9748.26,1755696323,14:25:22
1082256,69,100,99,3,-8.86,2.39,2.53,-0.18,-0.05,-0.07,21.63,-1664.56,675.28,9748.32,1755696323,14:25:22
1082278,69,100,99,3,-8.74,2.3,2.44,-0.14,-0.04,0,21.63,-1664.75,675.33,9748.37,1755696323,14:25:23
1082299,69,100,99,3,-8.68,2.26,2.52,-0.06,-0.03,0.01,21.61,-1664.93,675.38,9748.43,1755696323,14:25:23
1082320,69,100,99,3,-8.89,2.26,2.59,0.02,0.03,-0.03,21.63,-1665.12,675.43,9748.48,1755696323,14:25:23
1082341,69,100,99,3,-8.79,2.24,2.57,0.03,0.07,-0.04,21.63,-1665.3,675.47,9748.53,1755696323,14:25:23
1082362,69,100,99,3,-8.94,2.25,2.38,0,-0.07,0.01,21.65,-1665.49,675.52,9748.59,1755696323,14:25:23
1082383,69,100,99,3,-9.01,2.25,2.6,0.08,-0.09,0.07,21.62,-1665.68,675.57,9748.64,1755696324,14:25:23
1082404,69,100,99,3,-8.83,2.17,2.68,0.03,0.09,0.05,21.62,-1665.87,675.62,9748.69,1755696324,14:25:23
1082426,69,100,99,3,-8.94,2.2,2.74,0.11,0.16,-0.03,21.6,-1666.06,675.66,9748.75,1755696324,14:25:23
1082448,69,100,99,3,-9,2.33,2.71,0.11,0.14,-0.05,21.65,-1666.26,675.71,9748.81,1755696324,14:25:23
1082469,69,100,99,3,-8.98,2.37,2.67,0.03,0,-0.01,21.63,-1666.45,675.76,9748.87,1755696324,14:25:23
1082491,69,100,99,3,-9.11,2.43,2.78,0.09,-0.11,0,21.61,-1666.65,675.82,9748.93,1755696324,14:25:24
1082512,69,100,99,3,-9.24,2.41,2.65,-0.05,-0.14,-0.01,21.62,-1666.84,675.87,9748.99,1755696324,14:25:24
1082533,69,100,99,3,-9.39,2.37,2.59,0,-0.26,0.02,21.62,-1667.04,675.92,9749.04,1755696324,14:25:24
1082554,69,100,99,3,-9.3,2.4,2.72,0.1,-0.27,-0.06,21.62,-1667.23,675.97,9749.1,1755696324,14:25:24
1082575,69,100,99,3,-8.87,2.33,2.72,0.07,-0.23,-0.14,21.62,-1667.42,676.02,9749.15,1755696324,14:25:24
1082596,69,100,99,3,-8.42,2.4,2.74,0.08,-0.2,-0.11,21.62,-1667.6,676.07,9749.21,1755696324,14:25:24
1082617,69,100,99,3,-8.63,2.5,2.74,0.09,-0.13,0.02,21.63,-1667.78,676.12,9749.27,1755696325,14:25:24
1082638,69,100,99,3,-8.79,2.49,2.87,0.05,0,0.07,21.62,-1667.97,676.17,9749.33,1755696325,14:25:24
1082660,69,100,99,3,-8.71,2.37,2.83,0.04,0.03,0.02,21.63,-1668.16,676.22,9749.39,1755696325,14:25:24
1082681,69,100,99,3,-8.67,2.47,2.97,0.2,-0.01,-0.05,21.62,-1668.34,676.27,9749.45,1755696325,14:25:24
1082702,69,100,99,3,-8.7,2.7,2.95,0.23,-0.03,-0.1,21.59,-1668.52,676.33,9749.51,1755696325,14:25:24
1082723,69,100,99,3,-8.77,2.92,3,0.21,-0.04,-0.02,21.63,-1668.71,676.39,9749.58,1755696325,14:25:24
1082745,69,100,99,3,-8.71,3.08,3.39,0.26,0.14,0.01,21.63,-1668.9,676.45,9749.65,1755696325,14:25:25
1082766,69,100,99,3,-8.94,3.42,3.62,0.57,0.38,-0.15,21.62,-1669.08,676.52,9749.72,1755696325,14:25:25
1082787,69,100,99,3,-9.4,3.76,3.7,0.85,0.48,-0.33,21.6,-1669.28,676.6,9749.8,1755696325,14:25:25
1082808,69,100,99,3,-9.17,3.99,3.83,0.73,0.51,-0.42,21.62,-1669.47,676.68,9749.87,1755696325,14:25:25
1082829,69,100,99,3,-8.71,3.95,3.84,0.26,0.32,-0.33,21.62,-1669.66,676.76,9749.96,1755696325,14:25:25
1082850,69,100,99,3,-8.29,4,3.92,-0.3,-0.1,-0.01,21.62,-1669.84,676.85,9750.04,1755696325,14:25:25
1082871,69,100,99,3,-8.23,4.08,3.78,-1.03,-0.42,0.37,21.61,-1670.01,676.93,9750.12,1755696325,14:25:25
1082892,69,100,99,3,-8.43,3.83,3.57,-1.33,-0.58,0.69,21.62,-1670.19,677.01,9750.19,1755696326,14:25:25
1082913,69,100,99,3,-8.74,3.64,3.6,-1.25,-0.65,0.81,21.63,-1670.37,677.09,9750.27,1755696326,14:25:25
1082934,69,100,99,3,-8.58,3.59,3.66,-1.28,-0.5,0.65,21.6,-1670.55,677.17,9750.35,1755696326,14:25:25
1082955,69,100,99,3,-8.51,3.54,3.4,-1.36,-0.4,0.5,21.61,-1670.73,677.24,9750.42,1755696326,14:25:25
1082976,69,100,99,3,-8.51,3.66,3.35,-1.27,-0.34,0.59,21.63,-1670.91,677.32,9750.49,1755696326,14:25:25
1082997,69,100,99,3,-8.49,3.65,3.33,-1.39,-0.21,0.74,21.63,-1671.09,677.39,9750.56,1755696326,14:25:25
1083018,0,0,0,0,-8.36,3.39,3.32,-1.45,-0.25,0.92,21.63,-1671.26,677.47,9750.63,1755696326,14:25:26
1083059,69,100,99,3,-8,3.18,3.18,-1.4,-0.56,0.98,21.63,-1671.6,677.6,9750.77,1755696326,14:25:26
1083080,69,100,99,3,-7.73,3.1,3.18,-1.12,-0.87,1.09,21.62,-1671.76,677.67,9750.83,1755696326,14:25:26
1083102,69,100,99,3,-7.05,3.09,3.29,-0.84,-1.16,1.15,21.62,-1671.93,677.74,9750.9,1755696326,14:25:26
1083124,69,100,99,3,-6.02,3.2,3.41,-0.67,-1.4,1.19,21.62,-1672.07,677.81,9750.98,1755696326,14:25:26
1083145,69,100,99,3,-4.94,3.16,3.25,-0.84,-1.58,1.43,21.62,-1672.18,677.87,9751.05,1755696327,14:25:26
1083166,69,100,99,3,-4.21,3.39,3.21,-1.22,-1.6,1.73,21.62,-1672.28,677.94,9751.12,1755696327,14:25:26
1083188,69,100,99,3,-3.7,3.31,2.98,-1.49,-1.42,1.88,21.64,-1672.37,678.02,9751.18,1755696327,14:25:26
1083209,69,100,99,3,-4.45,3.59,2.61,-1.35,-1.24,1.93,21.62,-1672.45,678.09,9751.24,1755696327,14:25:26
1083230,69,100,99,3,-6.71,4.67,3.32,-0.65,-0.86,1.67,21.62,-1672.57,678.17,9751.31,1755696327,14:25:27
1083251,69,100,99,3,-6.65,4.98,3.7,0.1,0.38,0.81,21.64,-1672.71,678.28,9751.38,1755696327,14:25:27
1083272,69,100,99,3,-6.43,9.42,7.93,0.31,1.14,0.47,21.62,-1672.85,678.43,9751.5,1755696327,14:25:27
1083293,69,100,99,3,-7.1,4.71,4.07,-0.97,0.36,1.36,21.62,-1672.99,678.58,9751.63,1755696327,14:25:27
1083314,69,100,99,3,-5.94,5.24,4.15,0.53,-0.1,2.07,21.63,-1673.13,678.68,9751.71,1755696327,14:25:27
1083335,69,100,99,3,-5.92,5.61,4.41,-0.31,0.88,1.9,21.62,-1673.25,678.79,9751.8,1755696328,14:25:27
1083357,69,100,99,3,-5.97,5.91,4.98,-0.73,1.25,1.7,21.62,-1673.38,678.92,9751.91,1755696328,14:25:27
1083378,69,100,99,3,-6.8,6.34,5.32,-0.21,0.72,1.67,21.62,-1673.52,679.05,9752.01,1755696328,14:25:27
1083399,69,100,99,3,-8.17,6.31,5.79,-0.23,0.57,1.88,21.63,-1673.67,679.18,9752.13,1755696328,14:25:27
1083421,69,100,99,3,-8.96,5.94,6.3,-0.14,0.58,1.83,21.62,-1673.86,679.32,9752.26,1755696328,14:25:27
1083442,69,100,99,3,-8.93,6.41,6.39,-0.16,0.89,1.52,21.62,-1674.05,679.45,9752.4,1755696328,14:25:27
1083464,69,100,99,3,-8.54,6.32,6.56,-0.8,1.64,1.18,21.61,-1674.24,679.59,9752.54,1755696328,14:25:27
1083485,69,100,99,3,-9.05,5.77,6.68,-1.04,1.98,0.86,21.62,-1674.43,679.71,9752.68,1755696328,14:25:28
1083506,69,100,99,3,-9.61,4.98,6.69,-1.15,1.96,0.67,21.62,-1674.62,679.83,9752.82,1755696328,14:25:28
1083527,69,100,99,3,-9.83,4.57,6.59,-1.01,1.58,0.41,21.63,-1674.83,679.93,9752.96,1755696328,14:25:28
1083550,69,100,99,3,-9.48,4.48,6.31,-0.82,1.13,0.03,21.6,-1675.05,680.03,9753.11,1755696328,14:25:28
1083572,69,100,99,3,-9.25,4.32,6.26,-0.82,0.86,-0.24,21.62,-1675.25,680.13,9753.25,1755696328,14:25:28
1083593,69,100,99,3,-8.88,3.78,6.11,-0.8,0.72,-0.43,21.62,-1675.44,680.21,9753.38,1755696328,14:25:28
1083614,69,100,99,3,-8.59,3.28,5.76,-0.58,0.46,-0.52,21.6,-1675.63,680.29,9753.5,1755696328,14:25:28
1083635,69,100,99,3,-8.25,3.12,5.6,-0.47,0.39,-0.72,21.62,-1675.81,680.35,9753.62,1755696329,14:25:28
1083656,69,100,99,3,-8.25,2.93,5.67,-0.59,0.5,-1.05,21.62,-1675.98,680.42,9753.74,1755696329,14:25:28
1083677,69,100,99,3,-8.27,2.79,5.53,-0.54,0.42,-1.31,21.63,-1676.15,680.48,9753.86,1755696329,14:25:28
1083698,69,100,99,3,-8.33,2.83,5.52,-0.46,0.31,-1.38,21.61,-1676.33,680.54,9753.97,1755696329,14:25:28
1083719,69,100,99,3,-8.33,2.66,5.44,-0.36,0.18,-1.4,21.62,-1676.5,680.59,9754.09,1755696329,14:25:28
1083740,69,100,99,3,-8.28,2.7,5.36,-0.13,-0.03,-1.4,21.61,-1676.68,680.65,9754.2,1755696329,14:25:29
1083761,69,100,99,3,-8.13,2.78,5.11,-0.06,-0.12,-1.49,21.62,-1676.85,680.71,9754.31,1755696329,14:25:29
1083782,69,100,99,3,-8.09,2.77,4.91,-0.03,-0.18,-1.56,21.62,-1677.02,680.77,9754.42,1755696329,14:25:29
1083803,69,100,99,3,-8.19,2.73,4.82,0.1,-0.29,-1.59,21.61,-1677.19,680.82,9754.52,1755696329,14:25:29
1083824,69,100,99,3,-8.48,2.72,4.71,0.27,-0.5,-1.58,21.61,-1677.36,680.88,9754.62,1755696330,14:25:29
1083845,69,100,99,3,-8.69,2.91,4.89,0.26,-0.6,-1.63,21.6,-1677.54,680.94,9754.72,1755696330,14:25:29
1083867,69,100,99,3,-8.34,2.9,4.84,0.3,-0.67,-1.7,21.63,-1677.73,681,9754.83,1755696330,14:25:29
1083888,69,100,99,3,-8.13,2.92,4.62,0.32,-0.7,-1.67,21.59,-1677.9,681.07,9754.93,1755696330,14:25:29
1083909,69,100,99,3,-8.17,2.73,4.36,0.28,-0.64,-1.55,21.59,-1678.08,681.12,9755.02,1755696330,14:25:29
1083930,69,100,99,3,-8.49,2.24,4.48,0.37,-0.65,-1.28,21.61,-1678.25,681.18,9755.11,1755696330,14:25:30
1083952,69,100,99,3,-8.71,1.96,4.83,0.45,-0.78,-1.07,21.63,-1678.44,681.22,9755.22,1755696330,14:25:30
1083973,69,100,99,3,-8.87,1.52,5.19,0.47,-1.07,-0.88,21.6,-1678.62,681.26,9755.32,1755696330,14:25:30
1083994,69,100,99,3,-8.71,1.29,5.53,0.61,-1.38,-0.62,21.61,-1678.81,681.29,9755.43,1755696330,14:25:30
1084016,69,100,99,3,-7.91,0.97,5.22,0.68,-1.43,-0.6,21.61,-1678.99,681.31,9755.55,1755696331,14:25:30
1084037,69,100,99,3,-7.44,0.56,5.16,0.86,-1.22,-0.54,21.6,-1679.15,681.33,9755.66,1755696331,14:25:30
1084058,69,100,99,3,-6.56,0.62,5.37,0.76,-0.82,-0.72,21.6,-1679.3,681.34,9755.77,1755696331,14:25:30
1084079,69,100,99,3,-6.08,0.2,5.16,0.48,-0.65,-0.82,21.6,-1679.43,681.35,9755.88,1755696331,14:25:30
1084100,69,100,99,3,-6.14,0.4,5.62,0.53,-0.62,-0.75,21.59,-1679.56,681.36,9756,1755696331,14:25:30
1084121,69,100,99,3,-6.34,0.06,5.43,0.51,-0.9,-0.66,21.6,-1679.69,681.36,9756.11,1755696331,14:25:31
1084142,69,100,99,3,-5.65,0.56,5.66,0.8,-1.21,-0.49,21.6,-1679.82,681.37,9756.23,1755696331,14:25:31
1084164,69,100,99,3,-5.27,1.29,5.94,0.65,-0.97,-0.45,21.59,-1679.94,681.39,9756.36,1755696331,14:25:31
1084186,69,100,99,3,-5.41,1.71,5.87,0.47,-0.8,-0.23,21.57,-1680.06,681.42,9756.49,1755696331,14:25:31
1084207,69,100,99,3,-6.41,2.22,6.27,0.37,-0.76,-0.01,21.59,-1680.18,681.46,9756.61,1755696331,14:25:31
1084229,69,100,99,3,-6.67,2.21,6.56,0.37,-0.95,-0.04,21.6,-1680.32,681.51,9756.75,1755696332,14:25:31
1084250,69,100,99,3,-5.77,2.58,6.58,0.59,-1.04,0.05,21.59,-1680.45,681.56,9756.89,1755696332,14:25:31
1084271,69,100,99,3,-5.3,2.83,6.63,0.4,-0.54,0.23,21.61,-1680.57,681.62,9757.03,1755696332,14:25:31
1084293,69,100,99,3,-5.53,2.87,6.85,0.28,-0.09,0.35,21.6,-1680.69,681.68,9757.18,1755696332,14:25:31
1084314,69,100,99,3,-5.95,3.37,7.2,0.23,0.25,0.4,21.6,-1680.81,681.75,9757.33,1755696332,14:25:31
1084335,69,100,99,3,-6.87,3.75,7.73,0.09,0.55,0.53,21.58,-1680.94,681.82,9757.48,1755696332,14:25:32
1084356,69,100,99,3,-7.48,4.08,8.5,0.13,0.5,0.58,21.59,-1681.1,681.9,9757.65,1755696332,14:25:32
1084379,69,100,99,3,-7.3,4.12,8.25,0.25,0.28,0.51,21.59,-1681.27,682,9757.85,1755696332,14:25:32
1084400,69,100,99,3,-7.12,3.74,7.66,0.18,0.26,0.46,21.59,-1681.42,682.08,9758.01,1755696332,14:25:32
1084421,69,100,99,3,-6.6,3.34,7.36,0.14,0.21,0.35,21.58,-1681.56,682.16,9758.17,1755696332,14:25:32
1084443,69,100,99,3,-5.76,3.1,6.92,0.28,-0.02,0.28,21.59,-1681.7,682.23,9758.33,1755696332,14:25:32
1084464,69,100,99,3,-5.94,3.11,7.08,0.15,0.02,0.11,21.6,-1681.82,682.29,9758.48,1755696333,14:25:32
1084487,69,100,99,3,-6.31,3.14,7.19,0.23,-0.18,0.09,21.6,-1681.96,682.36,9758.64,1755696333,14:25:32
1084508,69,100,99,3,-6.27,3.52,6.87,0.35,-0.28,0.05,21.59,-1682.09,682.43,9758.79,1755696333,14:25:32
1084529,69,100,99,3,-6.22,3.72,6.78,0.23,-0.14,0.12,21.59,-1682.22,682.51,9758.93,1755696333,14:25:32
1084550,69,100,99,3,-6.1,3.85,7.03,0.26,-0.12,0.12,21.6,-1682.35,682.59,9759.08,1755696333,14:25:32
1084571,69,100,99,3,-6.07,3.81,7.13,0.24,-0.09,0.14,21.6,-1682.48,682.67,9759.22,1755696333,14:25:33
1084592,69,100,99,3,-6.22,3.7,7.56,0.17,-0.05,0.11,21.6,-1682.61,682.75,9759.38,1755696333,14:25:33
1084613,69,100,99,3,-6.16,3.51,7.75,0.17,-0.07,0.1,21.58,-1682.74,682.82,9759.54,1755696333,14:25:33
1084634,69,100,99,3,-6.26,3.28,7.69,0.12,-0.05,0.09,21.6,-1682.87,682.89,9759.7,1755696333,14:25:33
1084655,69,100,99,3,-6.05,3.16,7.74,0.13,-0.09,0.07,21.6,-1683,682.96,9759.86,1755696333,14:25:33
1084676,69,100,99,3,-5.83,2.93,7.54,0.15,-0.1,0.05,21.58,-1683.12,683.03,9760.02,1755696333,14:25:33
1084697,69,100,99,3,-5.93,2.68,7.47,0.11,-0.11,0.07,21.61,-1683.25,683.09,9760.18,1755696334,14:25:33
1084718,69,100,99,3,-5.79,2.52,7.4,0.15,-0.2,0.05,21.59,-1683.37,683.14,9760.34,1755696334,14:25:33
1084739,69,100,99,3,-5.7,2.65,7.43,0.09,-0.14,-0.04,21.6,-1683.49,683.19,9760.49,1755696334,14:25:33
1084760,69,100,99,3,-5.84,2.72,7.54,-0.03,-0.07,-0.02,21.59,-1683.61,683.25,9760.65,1755696334,14:25:33
1084782,69,100,99,3,-5.53,3.19,7.52,0.02,-0.15,0.02,21.6,-1683.74,683.32,9760.82,1755696334,14:25:33
1084804,69,100,99,3,-5.49,3.48,7.32,-0.1,-0.08,0.05,21.62,-1683.86,683.39,9760.98,1755696334,14:25:33
1084825,69,100,99,3,-5.02,3.68,7.12,-0.11,-0.01,0.13,21.59,-1683.97,683.46,9761.13,1755696334,14:25:34
1084848,69,100,99,3,-5.45,4.2,7.12,-0.3,0.33,0.1,21.59,-1684.09,683.55,9761.29,1755696334,14:25:34
1084869,69,100,99,3,-5.84,4.08,7.42,-0.34,0.48,0.16,21.6,-1684.21,683.64,9761.45,1755696335,14:25:34
1084890,69,100,99,3,-5.74,4.03,7.12,-0.07,0.4,0.13,21.6,-1684.33,683.73,9761.6,1755696335,14:25:34
1084911,69,100,99,3,-5.85,4.05,6.56,-0.16,0.64,0.11,21.6,-1684.45,683.81,9761.74,1755696335,14:25:34
1084932,69,100,99,3,-6.31,3.66,6.79,-0.24,0.72,0.16,21.62,-1684.58,683.89,9761.88,1755696335,14:25:34
1084953,69,100,99,3,-6.24,3.51,6.83,-0.09,0.47,0.08,21.61,-1684.71,683.97,9762.03,1755696335,14:25:34
1084974,69,100,99,3,-5.84,3.45,6.83,0,0.33,0.05,21.62,-1684.84,684.04,9762.17,1755696335,14:25:35
1084995,69,100,99,3,-5.9,3.48,6.64,-0.06,0.45,0.06,21.62,-1684.96,684.11,9762.31,1755696335,14:25:35
1085016,69,100,99,3,-6.12,3.33,6.74,-0.14,0.64,0.1,21.6,-1685.09,684.19,9762.45,1755696335,14:25:35
1085037,69,100,99,3,-6.2,3.32,7.06,-0.16,0.8,0.14,21.61,-1685.22,684.26,9762.6,1755696338,14:25:37
1085058,69,100,99,3,-6.7,3.2,7.02,-0.23,0.88,0.1,21.59,-1685.35,684.32,9762.74,1755696338,14:25:37
1085079,69,100,99,3,-7.2,3.03,6.79,-0.18,0.74,0.12,21.63,-1685.5,684.39,9762.89,1755696338,14:25:37
1085101,69,100,99,3,-7.26,2.87,6.62,-0.18,0.58,0.08,21.6,-1685.66,684.45,9763.04,1755696338,14:25:37
1085122,69,100,99,3,-7.04,2.83,6.56,-0.1,0.41,0.03,21.59,-1685.81,684.51,9763.17,1755696338,14:25:38
1085143,69,100,99,3,-6.99,2.96,6.59,-0.11,0.24,0,21.61,-1685.96,684.57,9763.31,1755696338,14:25:38
1085164,69,100,99,3,-7.02,2.85,6.29,-0.09,0.13,-0.02,21.6,-1686.1,684.64,9763.45,1755696338,14:25:38
1085185,69,100,99,3,-6.89,2.9,6.28,-0.06,0.02,-0.03,21.61,-1686.25,684.7,9763.58,1755696338,14:25:38
1085207,69,100,99,3,-6.44,3.03,6.26,0.02,-0.01,-0.02,21.64,-1686.39,684.76,9763.72,1755696338,14:25:38
1085228,69,100,99,3,-6.32,3.09,5.89,-0.05,0.13,-0.03,21.6,-1686.53,684.83,9763.84,1755696338,14:25:38
1085250,69,100,99,3,-6.95,3.11,5.83,-0.15,0.23,-0.03,21.61,-1686.67,684.89,9763.97,1755696339,14:25:38
1085271,69,100,99,3,-7.17,2.87,5.91,0,0.05,-0.01,21.61,-1686.82,684.96,9764.1,1755696339,14:25:38
1085293,69,100,99,3,-7,3.15,5.84,0.16,-0.11,-0.1,21.61,-1686.98,685.02,9764.23,1755696339,14:25:38
1085315,69,100,99,3,-6.87,3.25,5.98,0.09,-0.02,-0.1,21.61,-1687.13,685.09,9764.36,1755696339,14:25:38
1085337,69,100,99,3,-6.63,3.31,6.58,0.03,-0.01,-0.09,21.61,-1687.28,685.16,9764.49,1755696339,14:25:38
1085359,69,100,99,3,-6.78,3.24,6.7,-0.04,-0.05,-0.03,21.62,-1687.43,685.24,9764.64,1755696339,14:25:38
1085380,69,100,99,3,-6.53,3.28,6.51,0.01,-0.05,0.06,21.61,-1687.57,685.31,9764.78,1755696339,14:25:38
1085402,69,100,99,3,-6.15,3.28,6.41,-0.12,0.21,0.12,21.62,-1687.71,685.38,9764.92,1755696339,14:25:39
1085423,69,100,99,3,-6.52,3.21,6.51,-0.24,0.4,0.12,21.61,-1687.84,685.45,9765.06,1755696339,14:25:39
1085444,69,100,99,3,-6.82,3.08,6.56,-0.22,0.42,0.12,21.61,-1687.98,685.51,9765.19,1755696339,14:25:39
1085465,69,100,99,3,-6.83,3.07,6.56,-0.17,0.4,0.12,21.62,-1688.12,685.58,9765.33,1755696339,14:25:39
1085486,69,100,99,3,-7.06,3.08,6.34,-0.17,0.39,0.12,21.62,-1688.27,685.64,9765.47,1755696340,14:25:39
1085508,70,100,99,3,-7.03,3.03,6.32,-0.08,0.32,0.13,21.61,-1688.42,685.71,9765.61,1755696340,14:25:40
1085529,70,100,99,3,-7.06,2.89,6.18,-0.14,0.34,0.09,21.64,-1688.57,685.77,9765.74,1755696340,14:25:40
1085550,70,100,99,3,-7.17,2.77,6.1,-0.09,0.24,0.06,21.61,-1688.72,685.83,9765.87,1755696340,14:25:40
1085572,70,100,99,3,-7.11,2.56,5.88,0,0.07,0.03,21.62,-1688.88,685.89,9766,1755696340,14:25:40
1085593,70,100,99,3,-7.16,2.47,5.75,-0.04,0.08,0.01,21.62,-1689.03,685.94,9766.12,1755696340,14:25:40
1085614,70,100,99,3,-7.11,2.47,5.8,0.04,0.15,0.03,21.63,-1689.18,685.99,9766.24,1755696340,14:25:40
1085635,70,100,99,3,-7.35,2.55,5.76,0.06,0.16,0.03,21.63,-1689.33,686.05,9766.36,1755696341,14:25:40
1085656,70,100,99,3,-7.02,2.67,5.77,0.05,0.16,0.03,21.62,-1689.48,686.1,9766.48,1755696341,14:25:40
1085677,70,100,99,3,-6.67,2.72,5.66,-0.01,0.14,0,21.62,-1689.62,686.16,9766.6,1755696341,14:25:40
1085698,70,100,99,3,-6.56,3,5.65,0.04,0.14,0.06,21.62,-1689.76,686.22,9766.72,1755696341,14:25:40
1085720,70,100,99,3,-6.79,3.05,5.61,0.14,0.13,0.17,21.63,-1689.91,686.28,9766.85,1755696341,14:25:41
1085741,70,100,99,3,-6.99,3.21,5.73,0.26,0.08,0.22,21.63,-1690.05,686.35,9766.97,1755696341,14:25:41
1085762,70,100,99,3,-7.32,3.33,5.79,0.22,0.08,0.18,21.63,-1690.21,686.42,9767.09,1755696341,14:25:41
1085784,70,100,99,3,-7.59,3.52,5.98,0.17,0.13,0.12,21.64,-1690.37,686.49,9767.22,1755696341,14:25:41
1085805,70,100,99,3,-7.77,3.57,6.21,0.12,0.14,0.08,21.6,-1690.53,686.57,9767.35,1755696342,14:25:41
1085827,70,100,99,3,-7.62,3.58,6.21,0.12,0.13,0,21.62,-1690.7,686.65,9767.48,1755696342,14:25:41
1085848,70,100,99,3,-7.7,3.64,6.21,0.07,0.16,0,21.62,-1690.86,686.72,9767.61,1755696342,14:25:41
1085869,70,100,99,3,-7.61,3.59,6.1,0.05,0.2,0,21.64,-1691.02,686.8,9767.74,1755696342,14:25:41
1085890,70,100,99,3,-7.92,3.52,5.94,0.04,0.16,0.08,21.63,-1691.18,686.87,9767.87,1755696342,14:25:41
1085911,70,100,99,3,-8,3.32,5.87,0.11,0.05,0.09,21.63,-1691.35,686.94,9767.99,1755696342,14:25:42
1085933,70,100,99,3,-7.72,3.28,5.63,0.14,-0.04,0,21.63,-1691.52,687.02,9768.12,1755696342,14:25:42
1085954,70,100,99,3,-7.33,3.31,5.52,0.15,-0.03,-0.06,21.64,-1691.68,687.09,9768.24,1755696342,14:25:42
1085975,70,100,99,3,-7.09,3.37,5.6,0.14,-0.04,-0.05,21.62,-1691.83,687.16,9768.35,1755696342,14:25:42
1085997,70,100,99,3,-7.1,3.48,5.57,0.17,-0.13,-0.01,21.63,-1691.99,687.23,9768.48,1755696342,14:25:42
1086018,70,100,99,3,-7.08,3.51,5.5,0.16,-0.09,0.03,21.62,-1692.14,687.31,9768.59,1755696343,14:25:42
1086041,70,100,99,3,-7.11,3.56,5.55,0.1,0.06,0.03,21.64,-1692.3,687.39,9768.72,1755696343,14:25:42
1086062,70,100,99,3,-7.42,3.54,5.59,0.09,0.1,0.08,21.62,-1692.45,687.46,9768.84,1755696343,14:25:42
1086083,70,100,99,3,-7.38,3.51,5.57,0.11,0.03,0.07,21.62,-1692.61,687.54,9768.95,1755696343,14:25:43
1086105,70,100,99,3,-7.13,3.57,5.43,0.11,-0.03,-0.01,21.63,-1692.77,687.61,9769.07,1755696343,14:25:43
1086127,70,100,99,3,-7.13,3.72,5.22,0.08,0.03,-0.04,21.63,-1692.93,687.69,9769.19,1755696343,14:25:43
1086148,70,100,99,3,-7.27,3.72,5.22,0.11,0.04,0.05,21.64,-1693.08,687.77,9769.3,1755696344,14:25:43
1086169,70,100,99,3,-7.31,3.72,5.41,0.13,0,0.04,21.63,-1693.23,687.85,9769.41,1755696344,14:25:43
1086190,70,100,99,3,-7.13,3.77,5.42,0.18,-0.11,-0.04,21.63,-1693.38,687.93,9769.53,1755696344,14:25:43
1086212,70,100,99,3,-7.13,3.88,5.32,0.09,-0.03,-0.04,21.64,-1693.54,688.01,9769.64,1755696344,14:25:43
1086234,70,100,99,3,-7.29,3.79,5.33,0.12,0.01,0.03,21.64,-1693.7,688.1,9769.76,1755696344,14:25:43
1086255,0,0,0,0,-7.47,3.6,5.24,0.11,-0.01,0.01,21.64,-1693.85,688.17,9769.87,1755696344,14:25:44
1086296,70,100,99,3,-7.29,3.73,5.32,0.06,-0.05,-0.03,21.61,-1694.16,688.32,9770.09,1755696344,14:25:44
1086317,70,100,99,3,-7.17,3.78,5.32,0.05,-0.06,-0.05,21.63,-1694.31,688.4,9770.2,1755696344,14:25:44
1086338,70,100,99,3,-6.98,3.8,5.23,0,0,-0.05,21.63,-1694.46,688.48,9770.31,1755696344,14:25:44
1086359,70,100,99,3,-6.88,3.81,5.2,-0.04,0.09,-0.05,21.63,-1694.6,688.56,9770.42,1755696345,14:25:44
1086380,70,100,99,3,-7.1,3.87,5.29,-0.11,0.17,-0.05,21.63,-1694.75,688.64,9770.53,1755696345,14:25:44
1086401,70,100,99,3,-7.11,3.81,5.38,-0.12,0.15,-0.05,21.64,-1694.9,688.72,9770.64,1755696345,14:25:44
1086424,70,100,99,3,-7.27,3.84,5.43,-0.08,0.11,-0.05,21.64,-1695.06,688.81,9770.77,1755696345,14:25:44
1086445,70,100,99,3,-7.36,3.73,5.48,-0.1,0.11,-0.04,21.64,-1695.22,688.89,9770.88,1755696345,14:25:44
1086466,70,100,99,3,-7.47,3.59,5.55,-0.05,0.08,-0.01,21.62,-1695.37,688.97,9771,1755696345,14:25:45
1086488,70,100,99,3,-7.52,3.51,5.6,-0.02,0.02,-0.03,21.62,-1695.54,689.05,9771.12,1755696345,14:25:45
1086509,70,100,99,3,-7.48,3.6,5.62,-0.01,0,-0.04,21.63,-1695.69,689.12,9771.24,1755696345,14:25:45
1086530,70,100,99,3,-7.43,3.6,5.58,-0.01,0.01,-0.03,21.63,-1695.85,689.2,9771.36,1755696346,14:25:45
1086552,70,100,99,3,-7.35,3.64,5.61,-0.01,0,-0.03,21.63,-1696.01,689.28,9771.48,1755696346,14:25:45
1086573,70,100,99,3,-7.46,3.68,5.48,0,-0.02,-0.01,21.64,-1696.17,689.35,9771.59,1755696346,14:25:45
1086594,70,100,99,3,-7.39,3.66,5.37,0,-0.03,-0.02,21.63,-1696.33,689.43,9771.71,1755696346,14:25:45
1086616,70,100,99,3,-7.29,3.64,5.29,0.01,-0.05,-0.03,21.63,-1696.49,689.51,9771.83,1755696346,14:25:45
1086638,70,100,99,3,-7.2,3.63,5.34,0.01,-0.03,-0.02,21.64,-1696.65,689.59,9771.94,1755696346,14:25:45
1086659,70,100,99,3,-7.3,3.62,5.38,0.02,-0.05,0,21.62,-1696.8,689.67,9772.06,1755696346,14:25:46
1086680,70,100,99,3,-7.35,3.63,5.4,-0.02,-0.01,0.01,21.63,-1696.95,689.74,9772.17,1755696346,14:25:46
1086701,70,100,99,3,-7.44,3.65,5.37,-0.04,0.03,0.01,21.63,-1697.11,689.82,9772.28,1755696346,14:25:46
1086722,70,100,99,3,-7.36,3.66,5.28,-0.05,0.07,0,21.64,-1697.26,689.9,9772.39,1755696346,14:25:46
1086744,70,100,99,3,-7.35,3.67,5.3,-0.11,0.11,0.01,21.64,-1697.42,689.98,9772.51,1755696346,14:25:46
1086765,70,100,99,3,-7.3,3.6,5.26,-0.07,0.08,0.01,21.62,-1697.58,690.05,9772.62,1755696347,14:25:46
1086786,70,100,99,3,-7.34,3.59,5.29,-0.08,0.07,0.02,21.64,-1697.73,690.13,9772.73,1755696347,14:25:46
1086807,70,100,99,3,-7.36,3.56,5.42,-0.02,0.02,0.03,21.63,-1697.89,690.2,9772.84,1755696347,14:25:46
1086829,70,100,99,3,-7.33,3.63,5.54,-0.03,0,0.02,21.63,-1698.05,690.28,9772.97,1755696347,14:25:46
1086851,70,100,99,3,-7.28,3.67,5.58,-0.04,0.02,0.02,21.64,-1698.21,690.36,9773.09,1755696347,14:25:46
1086872,70,100,99,3,-7.2,3.71,5.58,-0.04,0.04,0.02,21.64,-1698.36,690.44,9773.21,1755696347,14:25:47
1086894,70,100,99,3,-7.27,3.69,5.41,-0.06,0.05,0.02,21.63,-1698.52,690.52,9773.33,1755696347,14:25:47
1086915,70,100,99,3,-7.32,3.65,5.35,-0.08,0.07,0.03,21.63,-1698.67,690.6,9773.44,1755696347,14:25:47
1086936,70,100,99,3,-7.35,3.67,5.32,-0.07,0.05,0.01,21.63,-1698.83,690.68,9773.55,1755696347,14:25:47
1086957,70,100,99,3,-7.3,3.63,5.21,-0.08,0.02,-0.02,21.64,-1698.98,690.75,9773.66,1755696347,14:25:47
1086978,70,100,99,3,-7.32,3.68,5.1,-0.11,0.01,0.02,21.64,-1699.13,690.83,9773.77,1755696347,14:25:47
1086999,70,100,99,3,-7.34,3.53,5.09,-0.12,0.01,0.06,21.63,-1699.29,690.9,9773.88,1755696348,14:25:47
1087020,70,100,99,3,-7.4,3.45,5.12,-0.13,0,0.03,21.64,-1699.44,690.98,9773.99,1755696348,14:25:47
1087043,70,100,99,3,-7.36,3.51,5.15,-0.06,0.06,-0.03,21.63,-1699.61,691.06,9774.1,1755696348,14:25:47
1087064,70,100,99,3,-7.47,3.82,5.38,-0.06,0.21,-0.06,21.62,-1699.77,691.14,9774.21,1755696348,14:25:48
1087085,70,100,99,3,-7.6,3.75,5.7,-0.12,0.19,0.01,21.62,-1699.93,691.21,9774.33,1755696348,14:25:48
1087106,70,100,99,3,-7.6,4.01,6.03,-0.15,0.15,0.01,21.65,-1700.09,691.3,9774.45,1755696348,14:25:48
1087128,70,100,99,3,-7.54,4.04,6.14,-0.16,0.12,-0.01,21.62,-1700.25,691.38,9774.59,1755696348,14:25:48
1087150,70,100,99,3,-7.36,4.14,6.27,-0.18,0.08,-0.01,21.62,-1700.42,691.47,9774.72,1755696348,14:25:48
1087171,70,100,99,3,-7.34,4.22,6.3,-0.2,0.02,-0.03,21.64,-1700.57,691.56,9774.86,1755696349,14:25:48
1087193,70,100,99,3,-7.35,4.31,6.13,-0.21,-0.04,-0.04,21.61,-1700.73,691.66,9774.99,1755696349,14:25:48
1087214,70,100,99,3,-6.51,4.8,6.25,-0.26,-0.08,0,21.64,-1700.88,691.75,9775.12,1755696349,14:25:48
1087236,70,100,99,3,-6.6,4.84,5.85,-0.52,0.13,-0.09,21.62,-1701.02,691.86,9775.25,1755696349,14:25:48
1087258,70,100,99,3,-7.34,5,5.8,-0.56,0.24,0.05,21.64,-1701.18,691.97,9775.38,1755696349,14:25:49
1087279,70,100,99,3,-6.76,4.94,6.04,-0.5,0.02,0.11,21.64,-1701.32,692.07,9775.51,1755696349,14:25:49
1087300,70,100,99,3,-7.17,5.03,6.08,-0.66,-0.17,0.17,21.65,-1701.47,692.18,9775.63,1755696349,14:25:49
1087321,70,100,99,3,-5.39,4.67,5.74,-0.48,-0.29,0.23,21.64,-1701.6,692.28,9775.76,1755696350,14:25:49
1087343,70,100,99,3,-5.15,4.87,5.42,-0.91,0.04,0.25,21.65,-1701.72,692.38,9775.88,1755696350,14:25:49
1087365,70,100,99,3,-5.43,4.95,5.57,-1.02,0.37,0.5,21.65,-1701.83,692.49,9776,1755696350,14:25:49
1087386,70,100,99,3,-5.31,4.76,5.83,-0.99,0.54,0.84,21.64,-1701.95,692.59,9776.12,1755696350,14:25:49
1087407,70,100,99,3,-5.54,4.61,5.6,-0.97,0.52,0.94,21.65,-1702.06,692.69,9776.24,1755696350,14:25:49
1087428,70,100,99,3,-5.81,4.6,5.17,-0.98,0.45,1.08,21.62,-1702.18,692.79,9776.36,1755696350,14:25:49
1087451,70,100,99,3,-6.04,4.58,4.93,-0.97,0.34,1.24,21.63,-1702.32,692.89,9776.47,1755696350,14:25:49
1087472,70,100,99,3,-5.95,4.58,4.77,-0.83,0.21,1.38,21.64,-1702.44,692.99,9776.57,1755696350,14:25:50
1087493,70,100,99,3,-5.83,4.68,4.72,-0.82,0.18,1.48,21.64,-1702.57,693.09,9776.67,1755696350,14:25:50
1087515,70,100,99,3,-5.49,4.56,4.37,-0.69,0.16,1.57,21.62,-1702.69,693.19,9776.77,1755696350,14:25:50
1087537,71,100,99,3,-4.87,4.6,3.91,-0.64,0.24,1.61,21.65,-1702.81,693.29,9776.86,1755696350,14:25:50
1087558,71,100,99,3,-4.09,4.74,3.73,-0.8,0.29,1.78,21.62,-1702.9,693.39,9776.94,1755696351,14:25:50
1087579,71,100,99,3,-3.91,5.6,3.83,-0.77,0.23,1.73,21.62,-1702.98,693.49,9777.02,1755696351,14:25:50
1087600,71,100,99,3,-4.86,5.34,3.57,-1.24,0.08,1.71,21.62,-1703.08,693.61,9777.1,1755696351,14:25:50
1087621,71,100,99,3,-6.1,5.77,4.37,-0.88,-0.01,1.72,21.63,-1703.19,693.73,9777.18,1755696351,14:25:51
1087642,71,100,99,3,-6.6,5.93,4.87,-0.7,0.05,1.92,21.65,-1703.32,693.85,9777.28,1755696351,14:25:51
1087664,70,100,99,3,-6.31,6.18,5.23,-0.51,0.22,1.87,21.63,-1703.47,693.98,9777.39,1755696351,14:25:51
1087685,70,100,99,3,-6.25,6.2,5.15,-0.62,0.46,1.98,21.63,-1703.6,694.11,9777.5,1755696351,14:25:51
1087706,71,100,99,3,-6.82,6.27,5.19,-0.82,0.93,1.83,21.63,-1703.73,694.24,9777.61,1755696352,14:25:51
1087727,71,100,99,3,-6.99,6.22,5.45,-0.99,1.34,1.74,21.62,-1703.88,694.37,9777.72,1755696352,14:25:51
1087749,71,100,99,3,-6.96,6.31,5.53,-0.84,1.41,1.82,21.62,-1704.03,694.51,9777.84,1755696352,14:25:51
1087771,71,100,99,3,-6.9,6.21,5.32,-0.68,1.35,2.08,21.63,-1704.19,694.65,9777.96,1755696352,14:25:51
1087792,71,100,99,3,-6.95,5.86,5.34,-0.64,1.4,2.19,21.62,-1704.33,694.78,9778.07,1755696352,14:25:51
1087814,71,100,99,3,-6.93,5.44,5.32,-0.56,1.36,2.02,21.62,-1704.48,694.9,9778.19,1755696352,14:25:52
1087835,71,100,99,3,-6.99,5.33,5.55,-0.49,1.23,1.76,21.62,-1704.63,695.01,9778.3,1755696352,14:25:52
1087856,71,100,99,3,-6.61,5.2,5.44,-0.27,0.99,1.42,21.62,-1704.77,695.12,9778.42,1755696352,14:25:52
1087877,71,100,99,3,-6.15,5.3,5.27,-0.13,0.87,1.15,21.62,-1704.91,695.23,9778.53,1755696352,14:25:52
1087898,71,100,99,3,-5.78,5.4,5.37,-0.15,1.01,0.97,21.62,-1705.03,695.35,9778.64,1755696352,14:25:52
1087919,71,100,99,3,-5.97,5.22,5.45,-0.16,1.1,0.9,21.62,-1705.16,695.46,9778.76,1755696352,14:25:52
1087940,71,100,99,3,-5.99,5.09,5.76,-0.12,1.13,0.84,21.63,-1705.28,695.57,9778.87,1755696353,14:25:52
1087963,71,100,99,3,-5.64,5.21,5.9,-0.21,1.35,0.64,21.62,-1705.41,695.69,9779.01,1755696353,14:25:52
1087984,71,100,99,3,-5.97,5.42,5.68,-0.29,1.47,0.52,21.62,-1705.54,695.8,9779.13,1755696353,14:25:52
1088005,71,100,99,3,-7,5.61,5.77,-0.45,1.66,0.46,21.62,-1705.67,695.91,9779.25,1755696353,14:25:52
1088027,71,100,99,3,-8.34,5.39,6.38,-0.5,1.61,0.43,21.64,-1705.84,696.03,9779.38,1755696353,14:25:52
1088049,71,100,99,3,-8.74,5.02,7.01,-0.46,1.4,0.15,21.63,-1706.03,696.15,9779.53,1755696353,14:25:52
1088071,71,100,99,3,-9.86,5.09,6.99,-0.44,1.02,-0.37,21.61,-1706.23,696.26,9779.69,1755696353,14:25:53
1088092,71,100,99,3,-10.33,5.4,6.55,-0.13,0.25,-0.66,21.62,-1706.45,696.37,9779.83,1755696353,14:25:53
1088113,71,100,99,3,-10.91,6.45,6.45,-0.08,-0.17,-1.07,21.61,-1706.67,696.49,9779.96,1755696353,14:25:53
1088134,71,100,99,3,-11.46,7.48,6.93,-0.34,-0.2,-1.47,21.63,-1706.9,696.64,9780.11,1755696353,14:25:53
1088155,71,100,99,3,-11.35,7.6,6.86,-0.32,-0.63,-1.69,21.62,-1707.14,696.8,9780.25,1755696353,14:25:53
1088176,71,100,99,3,-10.46,7.51,6.21,-0.32,-1,-2.03,21.61,-1707.37,696.96,9780.39,1755696354,14:25:53
1088197,71,100,99,3,-9.77,7.37,5.77,-0.74,-0.76,-2.41,21.63,-1707.58,697.11,9780.51,1755696354,14:25:53
1088218,71,100,99,3,-9.52,7.15,5.89,-1.19,-0.2,-2.7,21.61,-1707.79,697.27,9780.64,1755696354,14:25:53
1088239,71,100,99,3,-9.04,6.53,5.9,-1.21,-0.1,-2.72,21.61,-1707.98,697.41,9780.76,1755696354,14:25:53
1088261,71,100,99,3,-8.31,5.74,5.45,-0.94,-0.48,-2.59,21.59,-1708.17,697.55,9780.88,1755696354,14:25:53
1088283,71,100,99,3,-8.09,5.27,5.03,-0.9,-0.68,-2.6,21.6,-1708.35,697.67,9781,1755696355,14:25:54
1088304,71,100,99,3,-8.24,4.98,5.17,-0.94,-0.81,-2.68,21.61,-1708.52,697.77,9781.11,1755696355,14:25:54
1088325,74,100,99,3,-8.76,4.32,5.14,-0.78,-1.42,-2.76,21.62,-1708.7,697.87,9781.22,1755696355,14:25:54
1088346,74,100,99,3,-8.42,4.33,5.29,-0.48,-2.09,-2.77,21.6,-1708.88,697.96,9781.33,1755696355,14:25:54
1088368,74,100,99,3,-7.24,4.29,5.12,-0.4,-2.31,-2.87,21.62,-1709.06,698.06,9781.44,1755696355,14:25:54
1088390,74,100,99,3,-7.06,4.13,5.16,-0.48,-2.53,-2.5,21.61,-1709.21,698.15,9781.55,1755696355,14:25:54
1088411,74,100,99,3,-5.64,3.6,5.08,-0.41,-2.56,-2.14,21.6,-1709.35,698.23,9781.66,1755696355,14:25:55
1088432,74,100,99,3,-3.76,3.12,4.75,-0.39,-2.33,-1.75,21.6,-1709.45,698.3,9781.76,1755696355,14:25:55
1088453,74,100,99,3,-2.77,2.76,4.48,-0.61,-1.79,-1.21,21.61,-1709.51,698.36,9781.86,1755696355,14:25:55
1088476,74,100,99,3,-2.79,2.17,5.24,-0.98,-1.04,-0.53,21.61,-1709.58,698.42,9781.97,1755696355,14:25:55
1088497,74,100,99,3,-3.59,1.24,5.95,-1.02,-0.79,-0.12,21.61,-1709.64,698.46,9782.09,1755696356,14:25:55
1088518,74,100,99,3,-2.63,0.56,6.01,-0.44,-1.24,0.04,21.62,-1709.71,698.47,9782.21,1755696356,14:25:55
1088540,74,100,99,3,-1.51,0.69,6,-0.27,-1.04,0.02,21.62,-1709.76,698.49,9782.35,1755696356,14:25:55
1088562,74,100,99,3,-3.17,0.51,7.01,-0.82,-0.25,0.1,21.6,-1709.81,698.5,9782.49,1755696356,14:25:55
1088584,74,100,99,3,-3.11,0.03,7.84,-0.3,-0.72,0.31,21.59,-1709.88,698.51,9782.65,1755696356,14:25:56
1088605,74,100,99,3,-1.82,0.24,7.48,-0.2,-0.56,0.5,21.59,-1709.93,698.51,9782.81,1755696356,14:25:56
1088626,74,100,99,3,-2.03,0.06,7.52,-0.49,0.1,0.74,21.6,-1709.97,698.51,9782.97,1755696356,14:25:56
1088647,74,100,99,3,-2.53,-0.15,7.79,-0.38,0.3,1.1,21.6,-1710.02,698.51,9783.13,1755696356,14:25:56
1088670,74,100,99,3,-2.63,0.2,8.21,-0.51,0.73,1.33,21.57,-1710.08,698.51,9783.32,1755696356,14:25:56
1088692,74,100,99,3,-3.96,0.16,8.55,-0.7,1.19,1.63,21.59,-1710.15,698.52,9783.5,1755696356,14:25:56
1088713,74,100,99,3,-4.88,-0.04,8.75,-0.72,1.41,2.01,21.6,-1710.24,698.52,9783.68,1755696357,14:25:56
1088734,74,100,99,3,-5,0.49,8.5,-0.97,1.97,2.17,21.6,-1710.35,698.52,9783.86,1755696357,14:25:56
1088755,74,100,99,3,-6.43,0.65,8.41,-1.43,2.59,2.36,21.61,-1710.47,698.53,9784.04,1755696357,14:25:56
1088777,74,100,99,3,-8.59,0.36,8.48,-1.5,2.44,2.56,21.59,-1710.63,698.55,9784.23,1755696357,14:25:56
1088799,74,100,99,3,-9.46,-0.16,8.57,-1.31,1.88,2.62,21.58,-1710.83,698.55,9784.41,1755696357,14:25:56
1088820,74,100,99,3,-10.37,0.48,9.04,-1.22,1.38,2.49,21.6,-1711.04,698.55,9784.6,1755696357,14:25:56
1088842,74,100,99,3,-10.95,1.29,9.07,-1.32,1.1,2.14,21.58,-1711.27,698.57,9784.8,1755696357,14:25:57
1088864,74,100,99,3,-9.46,1.84,8.03,-1.15,0.62,1.77,21.6,-1711.5,698.61,9784.99,1755696357,14:25:57
1088885,74,100,99,3,-7.54,2.22,6.46,-1.33,0.83,1.52,21.59,-1711.67,698.65,9785.14,1755696357,14:25:57
1088906,74,100,99,3,-7.03,2.29,5.3,-1.74,1.52,1.5,21.6,-1711.83,698.7,9785.26,1755696357,14:25:57
1088928,74,100,99,3,-7.08,1.22,5.01,-1.95,1.79,1.64,21.61,-1711.98,698.73,9785.37,1755696357,14:25:57
1088949,74,100,99,3,-7.47,0.5,5.27,-1.82,1.5,1.6,21.62,-1712.14,698.75,9785.48,1755696357,14:25:57
1088971,74,100,99,3,-7.91,0.42,5.43,-1.73,1.12,1.27,21.6,-1712.3,698.76,9785.6,1755696358,14:25:57
1088992,74,100,99,3,-7.66,0.49,5.05,-1.64,0.74,0.99,21.62,-1712.47,698.77,9785.71,1755696358,14:25:57
1089013,74,100,99,3,-7.52,0.83,4.69,-1.8,0.54,1.01,21.62,-1712.63,698.79,9785.81,1755696358,14:25:57
1089034,74,100,99,3,-7.2,0.49,4.37,-2.28,0.58,1.25,21.6,-1712.78,698.8,9785.91,1755696358,14:25:57
1089055,74,100,99,3,-6.66,-0.14,4.33,-2.54,0.43,1.48,21.62,-1712.93,698.8,9786,1755696358,14:25:57
1089076,74,100,99,3,-6.3,-0.37,4.42,-2.52,0.44,1.52,21.63,-1713.06,698.8,9786.09,1755696358,14:25:58
1089098,74,100,99,3,-5.94,-0.78,4.43,-2.44,0.61,1.68,21.61,-1713.2,698.79,9786.19,1755696358,14:25:58
1089119,74,100,99,3,-5.89,-0.99,4.34,-2.15,0.92,1.73,21.59,-1713.32,698.77,9786.28,1755696358,14:25:58
1089141,74,100,99,3,-5.9,-1.27,4.31,-2.19,1.06,2.01,21.6,-1713.45,698.74,9786.37,1755696358,14:25:58
1089162,74,100,99,3,-6.73,-1.51,4.98,-2.06,1.35,2.01,21.61,-1713.58,698.71,9786.47,1755696358,14:25:58
1089183,74,100,99,3,-7.38,-1.86,5.47,-1.62,1.82,1.51,21.62,-1713.73,698.68,9786.58,1755696358,14:25:58
1089204,74,100,99,3,-8.12,-1.7,5.46,-0.69,2.2,0.71,21.6,-1713.9,698.64,9786.7,1755696359,14:25:58
1089225,74,100,99,3,-7.72,-1.35,5.62,0.44,2.11,0.83,21.59,-1714.06,698.61,9786.81,1755696359,14:25:58
1089246,74,100,99,3,-9.04,-1.6,5.58,0.26,2.25,0.85,21.59,-1714.24,698.58,9786.93,1755696359,14:25:58
1089267,74,100,99,3,-10.12,-1.92,5.29,0.77,1.39,0.94,21.58,-1714.44,698.54,9787.04,1755696359,14:25:58
1089289,74,100,99,3,-11.49,-1.05,5.42,0.72,0.37,0.44,21.61,-1714.68,698.51,9787.16,1755696359,14:25:59
1089311,74,100,99,3,-11.75,-0.37,5.09,0.36,-0.6,0.11,21.58,-1714.93,698.49,9787.28,1755696359,14:25:59
1089332,74,100,99,3,-11.45,0.16,4.68,-0.35,-1.15,-0.59,21.59,-1715.18,698.49,9787.38,1755696359,14:25:59
1089354,74,100,99,3,-11.04,0.96,4.21,-0.31,-1.57,-1.36,21.59,-1715.42,698.5,9787.48,1755696359,14:25:59
1089375,74,100,99,3,-10.78,1.81,3.85,0.32,-1.67,-1.77,21.6,-1715.65,698.53,9787.56,1755696359,14:25:59
1089397,74,100,99,3,-10.85,2.88,3.99,1.1,-1.31,-1.8,21.6,-1715.89,698.58,9787.65,1755696359,14:25:59
1089418,74,100,99,3,-10.83,3.72,4.25,1.48,-0.53,-1.76,21.57,-1716.12,698.65,9787.74,1755696360,14:25:59
1089439,74,100,99,3,-10.49,4.3,4.18,1.72,0.01,-1.79,21.57,-1716.34,698.74,9787.83,1755696360,14:25:59
1089461,74,100,99,3,-9.92,4.97,4.23,1.98,0.1,-1.71,21.6,-1716.57,698.84,9787.92,1755696360,14:25:59
1089483,74,100,99,3,-9.41,4.94,3.73,0.03,-0.58,-0.49,21.57,-1716.78,698.95,9788.01,1755696360,14:25:59
1089505,0,0,0,0,-9.5,5.03,3.4,-0.06,-0.87,0.06,21.57,-1716.99,699.06,9788.08,1755696360,14:25:59
1089546,74,100,99,3,-8.34,4.52,3.15,-0.13,-0.53,0.08,21.56,-1717.35,699.25,9788.22,1755696360,14:26:00
1089567,74,100,99,3,-7.63,4.41,3.22,0.06,-0.5,0.29,21.57,-1717.52,699.35,9788.29,1755696360,14:26:00
1089588,74,100,99,3,-7.06,3.98,3.08,-0.28,-0.36,0.59,21.55,-1717.67,699.43,9788.35,1755696360,14:26:00
1089610,74,100,99,3,-7.4,3.53,3.25,-0.06,-0.32,0.95,21.57,-1717.83,699.52,9788.42,1755696360,14:26:00
1089631,74,100,99,3,-7.11,3.2,3.69,0.11,-0.11,0.82,21.57,-1717.99,699.59,9788.49,1755696361,14:26:00
1089652,74,100,99,3,-6.77,2.71,3.85,0.04,-0.1,0.49,21.55,-1718.13,699.65,9788.57,1755696361,14:26:00
1089674,74,100,99,3,-6.72,2.6,3.96,-0.09,-0.27,0.35,21.56,-1718.28,699.71,9788.66,1755696361,14:26:00
1089696,74,100,99,3,-6.51,2.56,4.06,-0.48,-0.24,0.49,21.54,-1718.43,699.76,9788.75,1755696361,14:26:00
1089718,74,100,99,3,-6.73,2.38,4.21,-0.55,-0.04,0.73,21.55,-1718.57,699.82,9788.84,1755696361,14:26:00
1089739,74,100,99,3,-7.34,2.16,4.4,-0.5,0.23,0.86,21.55,-1718.72,699.87,9788.93,1755696361,14:26:00
1089760,74,100,99,3,-7.77,2.08,4.71,-0.43,0.43,0.89,21.56,-1718.88,699.91,9789.02,1755696361,14:26:01
1089781,74,100,99,3,-8.02,2.06,5.1,-0.42,0.62,0.8,21.57,-1719.04,699.95,9789.13,1755696361,14:26:01
1089803,74,100,99,3,-8.03,2.04,5.36,-0.47,0.72,0.7,21.56,-1719.22,700,9789.24,1755696361,14:26:01
1089824,74,100,99,3,-8.06,2.05,5.57,-0.77,0.62,0.69,21.55,-1719.39,700.04,9789.36,1755696361,14:26:01
1089845,74,100,99,3,-7.91,1.96,5.59,-1.08,0.44,0.77,21.57,-1719.56,700.08,9789.47,1755696361,14:26:01
1089866,74,100,99,3,-8.07,1.53,5.41,-1.36,0.28,0.9,21.57,-1719.72,700.12,9789.59,1755696362,14:26:01
1089887,74,100,99,3,-7.97,1.1,5.44,-1.2,0.21,0.98,21.56,-1719.89,700.15,9789.7,1755696362,14:26:01
1089909,74,100,99,3,-8.24,0.95,5.51,-0.83,0.14,1,21.58,-1720.07,700.17,9789.82,1755696362,14:26:01
1089930,74,100,99,3,-8.26,1.04,5.73,-0.61,0.17,0.82,21.57,-1720.24,700.19,9789.94,1755696362,14:26:01
1089951,74,100,99,3,-8.11,1.67,5.85,-0.44,0.07,0.67,21.54,-1720.42,700.22,9790.06,1755696362,14:26:01
1089973,74,100,99,3,-8.17,2.15,5.7,-0.47,-0.01,0.64,21.57,-1720.6,700.26,9790.19,1755696362,14:26:02
1089995,74,100,99,3,-8.58,2.48,5.65,-0.58,0.01,0.68,21.57,-1720.78,700.31,9790.32,1755696362,14:26:02
1090016,74,100,99,3,-8.44,2.77,5.61,-0.5,0.03,0.7,21.59,-1720.96,700.37,9790.43,1755696362,14:26:02
1090037,74,100,99,3,-8.55,3.01,5.43,-0.64,0,0.66,21.56,-1721.14,700.43,9790.55,1755696362,14:26:02
1090058,74,100,99,3,-8.4,3.2,5.24,-0.55,-0.09,0.72,21.56,-1721.31,700.49,9790.66,1755696362,14:26:02
1090079,74,100,99,3,-8.42,5.42,6.21,-0.38,0.16,0.83,21.57,-1721.49,700.59,9790.78,1755696363,14:26:02
1090100,74,100,99,3,-8.8,4.91,4.97,-1.48,0.82,0.93,21.55,-1721.67,700.69,9790.9,1755696363,14:26:02
1090122,74,100,99,3,-9.73,5.26,4.7,-1.73,0.42,1.32,21.55,-1721.88,700.81,9791.01,1755696363,14:26:02
1090143,74,100,99,3,-10.18,5.54,4.65,-1.41,0.22,0.79,21.57,-1722.08,700.92,9791.1,1755696363,14:26:02
1090164,74,100,99,3,-8.91,4.9,4.33,-1.2,0.09,0.39,21.57,-1722.29,701.03,9791.2,1755696363,14:26:02
1090186,74,100,99,3,-7.49,4.3,3.98,-1.04,0.34,0.16,21.55,-1722.47,701.13,9791.29,1755696363,14:26:03
1090208,74,100,99,3,-6.55,3.87,3.74,-0.99,0.61,-0.03,21.55,-1722.62,701.22,9791.37,1755696363,14:26:03
1090229,74,100,99,3,-7.56,3.54,3.66,-1.08,0.44,0.19,21.56,-1722.77,701.3,9791.45,1755696363,14:26:03
1090250,74,100,99,3,-8.04,3.42,4.09,-0.85,0.31,0.61,21.53,-1722.93,701.37,9791.53,1755696364,14:26:03
1090271,74,100,99,3,-8.03,3.2,4.35,-0.79,0.1,0.97,21.55,-1723.1,701.44,9791.62,1755696364,14:26:03
1090292,74,100,99,3,-7.74,2.81,4.49,-0.83,-0.14,1,21.53,-1723.27,701.5,9791.72,1755696364,14:26:03
1090313,74,100,99,3,-7.24,2.51,4.54,-0.65,-0.69,0.94,21.56,-1723.42,701.56,9791.81,1755696364,14:26:03
1090334,74,100,99,3,-6.9,2.39,4.62,-0.52,-1.04,0.75,21.57,-1723.57,701.61,9791.91,1755696364,14:26:03
1090355,74,100,99,3,-6.9,2.51,5.33,-0.46,-0.88,0.17,21.57,-1723.72,701.66,9792.01,1755696364,14:26:04
1090376,74,100,99,3,-6.91,2.32,6.01,-0.5,-0.31,-0.66,21.56,-1723.86,701.71,9792.13,1755696364,14:26:04
1090397,74,100,99,3,-3.26,1.37,7.47,-0.66,0.89,-0.83,21.55,-1723.97,701.75,9792.27,1755696364,14:26:04
1090418,74,100,99,3,-3.43,2.97,4.51,-2.55,2.03,-1.48,21.55,-1724.04,701.8,9792.4,1755696364,14:26:04
1090439,74,100,99,3,-6.82,0.7,3.68,-1.16,2.23,0.31,21.56,-1724.15,701.84,9792.48,1755696365,14:26:04
1090460,74,100,99,3,-6.89,3.4,7.92,1.05,1.44,0.74,21.56,-1724.29,701.88,9792.61,1755696365,14:26:05
1090481,74,100,99,3,-7.49,1.07,5.79,-0.97,0.52,-0.07,21.56,-1724.44,701.93,9792.75,1755696365,14:26:05
1090502,75,100,99,3,-7.35,2.5,5.53,-0.54,0.01,-0.46,21.56,-1724.6,701.96,9792.87,1755696365,14:26:05
1090525,75,100,99,3,-7.75,2.48,5.38,-1.01,0.37,-0.2,21.56,-1724.77,702.02,9792.99,1755696365,14:26:05
1090547,75,100,99,3,-8.57,2.09,6.11,-0.66,0.62,-0.06,21.55,-1724.95,702.07,9793.12,1755696365,14:26:05
1090568,75,100,99,3,-9.11,1.68,6.21,-0.7,0.49,-0.21,21.56,-1725.14,702.11,9793.25,1755696366,14:26:05
1090589,75,100,99,3,-9.16,1.48,5.9,-0.62,0.37,-0.27,21.55,-1725.33,702.14,9793.37,1755696366,14:26:05
1090610,75,100,99,3,-9.61,1.18,5.72,-0.69,0.48,-0.08,21.53,-1725.53,702.17,9793.5,1755696366,14:26:05
1090631,75,100,99,3,-10.16,0.7,5.51,-0.61,0.45,0.3,21.55,-1725.73,702.19,9793.62,1755696366,14:26:05
1090652,75,100,99,3,-10.98,0.38,5.49,-0.4,0.19,0.77,21.54,-1725.96,702.2,9793.73,1755696366,14:26:05
1090673,75,100,99,3,-11.82,0.48,5.81,-0.1,0.08,0.96,21.57,-1726.19,702.21,9793.85,1755696366,14:26:06
1090694,75,100,99,3,-11.83,0.57,5.89,0.14,0.14,0.59,21.56,-1726.44,702.22,9793.97,1755696366,14:26:06
1090715,75,100,99,3,-11.49,0.52,5.73,0.25,-0.02,-0.13,21.54,-1726.69,702.23,9794.09,1755696366,14:26:06
1090737,75,100,99,3,-10.9,0.57,5.37,0.41,-0.69,-0.85,21.53,-1726.93,702.25,9794.22,1755696366,14:26:06
1090758,75,100,99,3,-10.43,0.87,5.02,0.43,-1.29,-1.04,21.56,-1727.16,702.26,9794.33,1755696366,14:26:06
1090779,0,100,0,3,-10.09,1.01,4.81,0.42,-1.52,-0.92,21.55,-1727.37,702.28,9794.43,1755696367,14:26:06
1090800,0,100,0,3,-9.84,1.29,4.64,0.67,-1.47,-0.87,21.55,-1727.58,702.3,9794.53,1755696367,14:26:06
1090822,0,100,0,3,-9.61,1.84,4.52,1.1,-1.27,-1,21.54,-1727.8,702.34,9794.63,1755696367,14:26:06
1090844,0,100,0,3,-9.12,2.49,4.41,1.41,-1.06,-1.13,21.54,-1728,702.39,9794.73,1755696367,14:26:07
1090865,0,100,0,3,-8.31,2.8,4.3,1.25,-1.06,-1.14,21.53,-1728.19,702.44,9794.82,1755696367,14:26:07
1090886,0,100,0,3,-7.43,2.84,4.08,0.79,-1.29,-0.98,21.53,-1728.35,702.5,9794.91,1755696367,14:26:07
1090907,0,100,0,3,-5.97,2.77,3.77,0.43,-1.5,-0.86,21.52,-1728.49,702.56,9794.99,1755696368,14:26:07
1090928,0,100,0,3,-4.72,2.36,3.33,-0.25,-1.4,-0.75,21.53,-1728.6,702.61,9795.06,1755696368,14:26:07
1090949,0,100,0,3,-3.97,1.79,2.92,-0.24,-1.3,-0.48,21.54,-1728.7,702.66,9795.13,1755696368,14:26:07
1090971,0,100,0,3,-3.72,1.58,2.89,0.08,-1.07,-0.19,21.53,-1728.78,702.7,9795.19,1755696368,14:26:07
1090992,0,100,0,3,-3.69,1.36,3.03,0.21,-0.61,-0.1,21.54,-1728.86,702.73,9795.26,1755696368,14:26:08
1091013,0,100,0,3,-3.64,1.06,3.03,0.52,-0.22,-0.26,21.55,-1728.93,702.75,9795.32,1755696368,14:26:08
1091035,0,100,0,3,-4.15,1.26,3.5,1.25,0.05,-0.51,21.54,-1729.02,702.78,9795.39,1755696368,14:26:08
1091056,0,100,0,3,-4.21,1.53,4.06,1.66,0.33,-0.76,21.53,-1729.11,702.81,9795.47,1755696368,14:26:08
1091077,0,100,0,3,-3.31,1.95,4.76,1.85,0.39,-0.86,21.55,-1729.19,702.84,9795.56,1755696368,14:26:08
1091098,0,100,0,3,-2.54,2.28,4.54,-0.09,0.15,-0.28,21.52,-1729.25,702.89,9795.66,1755696369,14:26:08
1091119,0,100,0,3,-3.28,2.62,4.85,0.08,-0.16,0.71,21.54,-1729.31,702.94,9795.76,1755696369,14:26:08
1091141,0,100,0,3,-4.15,2.35,5.02,-0.58,0.74,1,21.54,-1729.39,702.99,9795.87,1755696369,14:26:08
1091163,0,100,0,3,-5.72,3.66,7.03,-0.18,1.53,1.26,21.54,-1729.5,703.06,9796,1755696369,14:26:09
1091184,0,100,0,3,-8.03,2.99,7.06,-1.07,1.46,1.63,21.55,-1729.64,703.13,9796.15,1755696369,14:26:09
1091205,0,100,0,3,-8.56,3.2,7.08,-0.67,0.96,1.91,21.54,-1729.82,703.19,9796.3,1755696369,14:26:09
1091226,0,100,0,3,-8.62,3.61,7.02,-1.1,1.15,1.86,21.54,-1730,703.27,9796.45,1755696369,14:26:09
